Time (s),Gyroscope X (deg/s),Gyroscope Y (deg/s),Gyroscope Z (deg/s),Accelerometer X (g),Accelerometer Y (g),Accelerometer Z (g),Magnetometer X (uT),Magnetometer Y (uT),Magnetometer Z (uT),Barometer (hPa)
0.024358273,0.8362259,-0.1289668,-0.6590136,0.1490291,0.7564378,0.6392794,-24.06392,-11.83641,-36.35624,1007.638
0.059655666,1.643796,0.1664966,0.07405458,0.1305767,0.7557667,0.6349919,-24.42872,-11.84148,-36.79088,1007.642
0.092431068,-0.1577065,-0.4835229,-0.1092125,0.1466011,0.7559105,0.6363978,-24.42872,-11.84148,-36.79088,1007.644
0.125207424,1.519554,-0.4244302,0.01296555,0.1359104,0.7597343,0.6388242,-24.42196,-12.20591,-36.78515,1007.639
0.157983303,0.8983467,-0.3653375,0.01296555,0.1349377,0.7622283,0.64845,-24.40022,-13.28734,-35.89774,1007.645
0.190759182,-0.6546727,-0.3653375,0.07405458,0.1364288,0.7461084,0.6398063,-24.40022,-13.28734,-35.89774,1007.645
0.226057053,6.178613,-2.138118,-0.3535686,0.1456447,0.7485568,0.6306348,-24.05039,-12.56528,-36.34478,1007.645
0.258832455,-2.394054,0.5801454,-1.636438,0.1422419,0.7489719,0.6243845,-24.05788,-12.20679,-36.78562,1007.645
0.291608334,0.4013805,-0.0107814,-0.3535686,0.1412131,0.7778659,0.6484115,-24.05788,-12.20679,-36.78562,1007.645
0.324384689,-0.4683104,-0.3653375,-0.3535686,0.1412596,0.7573772,0.6436287,-24.40167,-13.29922,-36.76796,1007.645
0.359682083,0.02865586,-0.4244302,-0.2313905,0.1364335,0.7436565,0.6374031,-24.40771,-12.92884,-36.33858,1007.645
0.392457485,3.258936,-0.5426155,-0.5368356,0.1441382,0.7725161,0.6460059,-24.40771,-12.92884,-36.33858,1007.645
0.425233364,0.7119844,-0.8971716,-0.2924795,0.1373884,0.7509867,0.6397966,-24.05716,-12.20084,-36.35051,1007.645
0.458009720,1.519554,-0.6017082,0.6238557,0.1354403,0.7559311,0.6527905,-24.77782,-12.55759,-35.90873,1007.645
0.490785599,4.066506,-1.606284,-0.1703015,0.1369057,0.7490077,0.6359499,-24.77782,-12.55759,-35.90873,1007.641
0.526082516,3.196815,-0.8971716,-0.04812346,0.136386,0.7605919,0.6214927,-24.42123,-12.19997,-36.35004,1007.641
0.558858395,-0.9031558,0.107404,0.2573216,0.1514164,0.7689567,0.6156682,-24.40771,-12.92884,-36.33858,1007.641
0.591634750,1.333192,-0.5426155,0.01296555,0.1242416,0.7644504,0.6306616,-24.40771,-12.92884,-36.33858,1007.641
0.624410629,-2.704658,-0.0107814,0.3184106,0.1397995,0.7557968,0.628231,-24.04363,-12.92972,-36.33905,1007.644
0.659707546,1.022588,0.107404,-0.5368356,0.1422808,0.7324063,0.6234467,-24.7771,-12.55165,-35.47362,1007.644
0.692483902,3.383178,0.1664966,-1.330993,0.135879,0.771366,0.6306236,-24.7771,-12.55165,-35.47362,1007.644
0.725259781,0.3392597,-0.06987408,-0.3535686,0.1426646,0.7783013,0.6392616,-23.67955,-12.93059,-36.33952,1007.644
0.758035660,0.8983467,-0.4835229,0.1351436,0.1465841,0.7622117,0.6320561,-24.77106,-12.92203,-35.903,1007.644
0.790812015,0.09077663,-0.7789862,0.2573216,0.1407481,0.7645446,0.6243646,-24.77106,-12.92203,-35.903,1007.645
0.826108932,-0.841035,-0.0107814,0.1962326,0.1329893,0.7611041,0.6292019,-24.02938,-13.65265,-35.89248,1007.645
0.858884811,-0.1577065,-0.2471521,0.4405887,0.139319,0.7538514,0.6291978,-24.41447,-12.56441,-36.34431,1007.645
0.891660690,1.208951,-0.7198936,0.1962326,0.1412339,0.7670776,0.6378378,-24.04363,-12.92972,-36.33905,1007.643
0.924437046,-0.9652766,-0.4835229,0.5016777,0.1407505,0.7645814,0.6296596,-24.04363,-12.92972,-36.33905,1007.643
0.959733963,1.022588,-0.8971716,0.2573216,0.1509617,0.757818,0.6253133,-24.41447,-12.56441,-36.34431,1007.647
0.992509842,0.2150182,-0.8380789,0.1962326,0.1344067,0.7781823,0.6320609,-24.42123,-12.19997,-36.35004,1007.641
1.025285721,-1.21376,0.04831128,0.5016777,0.1505086,0.7436735,0.6229289,-24.42123,-12.19997,-36.35004,1007.639
1.058062077,3.445299,-0.0107814,-0.4757466,0.1364249,0.7450371,0.6258484,-24.77855,-12.56354,-36.34384,1007.639
1.090837955,-1.027397,-0.1880594,0.1962326,0.1499388,0.7802366,0.6286514,-24.77855,-12.56354,-36.34384,1007.639
1.126134872,2.265004,-0.6017082,0.4405887,0.1465883,0.759246,0.6258029,-24.77855,-12.56354,-36.34384,1007.639
1.158911228,0.277139,-1.015357,0.7460337,0.1334259,0.7810528,0.6258012,-24.7771,-12.55165,-35.47362,1007.638
1.191687107,-0.3440688,-0.5426155,0.9903898,0.1504731,0.7577671,0.6185754,-24.77106,-12.92203,-35.903,1007.636
1.224462986,0.09077663,-0.6608009,0.4405887,0.1354215,0.7591729,0.6287175,-24.77106,-12.92203,-35.903,1007.634
1.259759903,0.02865586,-1.015357,0.5016777,0.1465915,0.7592962,0.6330232,-24.77782,-12.55759,-35.90873,1007.636
1.292536259,1.9544,-1.547191,0.2573216,0.1432009,0.7543474,0.6258183,-24.77106,-12.92203,-35.903,1007.636
1.325312138,2.824091,-1.07445,0.01296555,0.1562673,0.7714491,0.6180597,-24.77106,-12.92203,-35.903,1007.634
1.358088017,-0.841035,-0.2471521,0.4405887,0.1460856,0.7640252,0.6132814,-24.40698,-12.9229,-35.90347,1007.634
1.390864372,0.7741051,-0.3062448,0.3794996,0.1460795,0.7694862,0.6281955,-24.76503,-13.29241,-36.33238,1007.636
1.426161289,0.09077663,-0.4244302,0.1351436,0.1480442,0.758741,0.6214679,-24.76503,-13.29241,-36.33238,1007.636
1.458937168,0.5256221,-0.06987408,0.3184106,0.1407565,0.7621497,0.6301445,-24.40095,-13.29328,-36.33285,1007.636
1.491713047,0.02865586,-0.06987408,0.2573216,0.1465779,0.7636293,0.6257963,-24.77033,-12.91608,-35.46789,1007.636
1.524489403,-1.586484,0.5210528,0.01296555,0.1402687,0.761605,0.6224448,-24.77033,-12.91608,-35.46789,1007.638
1.557264805,-0.4683104,0.107404,-0.1092125,0.1441545,0.7611538,0.6229176,-24.40626,-12.91696,-35.46836,1007.636
1.592562199,-0.0955857,1.052887,0.1962326,0.1504485,0.769506,0.6257783,-24.40771,-12.92884,-36.33858,1007.636
1.625338554,-1.648605,0.8165162,0.4405887,0.1509433,0.7661176,0.628189,-24.40771,-12.92884,-36.33858,1007.636
1.658114433,-1.151639,0.3437747,0.3184106,0.1485482,0.7524673,0.629178,-24.39419,-13.65772,-36.32712,1007.636
1.690889835,0.7741051,0.5210528,-0.1703015,0.1456292,0.7543743,0.6267752,-24.77855,-12.56354,-36.34384,1007.636
1.726187229,-1.586484,0.3437747,0.01296555,0.1480345,0.765156,0.6334923,-24.77855,-12.56354,-36.34384,1007.636
1.758963585,0.5877428,-0.3653375,-0.7201027,0.1368928,0.7533508,0.6301669,-24.77033,-12.91608,-35.46789,1007.638
1.791739464,0.9604675,-0.3653375,-0.4757466,0.149978,0.7631706,0.6257889,-24.77179,-12.92797,-36.33811,1007.638
1.824514866,-0.6546727,0.107404,-0.4757466,0.144162,0.7567236,0.6161852,-24.77179,-12.92797,-36.33811,1007.64
1.857291222,0.277139,-0.3653375,-0.3535686,0.1446462,0.7607477,0.6339884,-24.77782,-12.55759,-35.90873,1007.638
1.892588615,0.8362259,0.04831128,-0.4146576,0.1451231,0.7636472,0.630132,-24.40771,-12.92884,-36.33858,1007.637
1.925364494,-0.841035,0.1664966,-0.1703015,0.1412321,0.7640182,0.6181065,-24.77855,-12.56354,-36.34384,1007.637
1.958139896,0.6498636,0.1664966,-0.1703015,0.1499743,0.7646282,0.6253054,-24.77855,-12.56354,-36.34384,1007.635
1.990916252,0.1528974,-0.1289668,-0.4146576,0.1455955,0.7690018,0.62916,-24.77179,-12.92797,-36.33811,1007.635
2.026213646,-0.4061896,0.1664966,0.01296555,0.1417126,0.7679853,0.6277267,-24.77179,-12.92797,-36.33811,1007.633
2.058989048,-0.2198272,0.107404,-0.1703015,0.1460977,0.7611833,0.6248384,-24.77179,-12.92797,-36.33811,1007.631
2.091765881,0.5877428,0.107404,-0.2313905,0.1470724,0.7592266,0.6224322,-24.41447,-12.56441,-36.34431,1007.627
2.124541283,1.519554,-0.0107814,-0.3535686,0.1480235,0.7680146,0.6243421,-24.77241,-12.93307,-36.71106,1007.625
2.157317162,0.7119844,0.2255893,-0.1703015,0.1441309,0.7703804,0.6190529,-24.77241,-12.93307,-36.71106,1007.625
2.192614079,-1.897088,0.7574235,-0.04812346,0.1387924,0.7703794,0.6253232,-24.41447,-12.56441,-36.34431,1007.625
2.225390911,-1.151639,0.5801454,-0.2313905,0.1412576,0.7543145,0.6234161,-24.0557,-12.18896,-35.48029,1007.625
2.258166313,-0.281948,0.3437747,-0.2924795,0.1431687,0.7689983,0.6315725,-24.0557,-12.18896,-35.48029,1007.627
2.290942192,-1.834967,0.107404,-0.04812346,0.1417335,0.7602298,0.6330333,-24.7643,-13.28646,-35.89727,1007.627
2.326239109,1.457434,0.107404,0.01296555,0.1519363,0.7573759,0.6306066,-24.77106,-12.92203,-35.903,1007.629
2.359015942,-0.0955857,-0.1880594,0.07405458,0.1368487,0.7723616,0.6325453,-24.77106,-12.92203,-35.903,1007.629
2.391791344,0.277139,-0.3062448,0.01296555,0.1465912,0.758282,0.6272483,-24.76357,-13.28052,-35.46216,1007.627
2.424567223,-0.0955857,-0.3062448,0.1351436,0.1485247,0.7622011,0.6282006,-24.4152,-12.57035,-36.77942,1007.629
2.457343578,1.022588,-0.3653375,-0.04812346,0.1358873,0.7659385,0.6205232,-24.4152,-12.57035,-36.77942,1007.629
2.492640495,-0.281948,0.284682,0.2573216,0.1363728,0.7669533,0.6258155,-25.13586,-12.9271,-36.33764,1007.629
2.525416374,-1.027397,-0.1289668,0.01296555,0.1417284,0.7601494,0.6214807,-24.77106,-12.92203,-35.903,1007.629
2.558192730,0.09077663,0.3437747,-0.1092125,0.1378234,0.7704048,0.6301391,-24.77106,-12.92203,-35.903,1007.627
2.590968609,-2.02133,0.04831128,0.1962326,0.1572652,0.7632883,0.6339546,-24.77106,-12.92203,-35.903,1007.627
2.626265526,0.6498636,-0.3653375,0.07405458,0.1461086,0.7578177,0.6311011,-24.40698,-12.9229,-35.90347,1007.627
2.659041405,0.5256221,-0.1289668,0.01296555,0.141706,0.7704071,0.6257976,-24.40698,-12.9229,-35.90347,1007.627
2.691817760,-0.1577065,-0.1880594,0.1351436,0.1490088,0.7621817,0.6248299,-24.40698,-12.9229,-35.90347,1007.627
2.724593639,0.2150182,0.1664966,0.2573216,0.14415,0.7641127,0.6282081,-24.77179,-12.92797,-36.33811,1007.629
2.757369518,-1.21376,0.107404,0.01296555,0.1392962,0.7630915,0.6272584,-24.77179,-12.92797,-36.33811,1007.629
2.792667389,-0.03346492,-0.06987408,-0.1703015,0.1397728,0.7675022,0.6306202,-24.40022,-13.28734,-35.89774,1007.629
2.825442791,-0.7167935,-0.1289668,0.3184106,0.1524251,0.7549046,0.6248328,-24.7643,-13.28646,-35.89727,1007.631
2.858218670,0.8983467,-0.3062448,0.1962326,0.1407523,0.7641045,0.6311044,-24.40698,-12.9229,-35.90347,1007.631
2.890994549,-0.1577065,-0.3062448,0.2573216,0.1407474,0.7660493,0.6306201,-24.40698,-12.9229,-35.90347,1007.631
2.926291943,0.4635013,-0.4835229,0.2573216,0.1529042,0.7573338,0.6233839,-24.77179,-12.92797,-36.33811,1007.631
2.959067821,1.830158,-0.7789862,-0.04812346,0.1441315,0.7719051,0.6281964,-24.77782,-12.55759,-35.90873,1007.629
2.991843700,1.208951,-0.9562643,0.1962326,0.1509531,0.7612205,0.6243454,-24.77782,-12.55759,-35.90873,1007.629
3.024620056,0.6498636,-1.07445,-2.064061,0.1243483,0.7302566,0.6860695,-25.13659,-12.93304,-36.77275,1007.629
3.057395935,74.82207,-44.80304,-7.439894,0.06782828,0.4151176,0.7506996,-24.40698,-12.9229,-35.90347,1007.629
3.092692852,301.9356,-76.41761,12.10859,0.117631,0.9097578,0.7329884,-24.40698,-12.9229,-35.90347,1007.629
3.125468731,344.4262,-96.80459,81.99442,0.2348122,1.608722,0.4606503,-25.47395,-13.97284,-32.90125,1007.631
3.158245087,306.2841,-79.90408,176.8657,0.3398908,2.4814,0.1096172,-27.15801,-20.47869,-24.71416,1007.632
3.191020966,71.46755,-44.09392,259.1526,0.276109,1.92813,0.04754393,-27.15801,-20.47869,-24.71416,1007.632
3.226317883,136.3216,-30.5617,320.7303,0.2678656,1.461522,-0.2261094,-31.43439,-24.74806,-17.80229,1007.632
3.259094238,18.66489,9.030398,345.899,0.1484137,1.258455,-0.2182997,-37.01209,-21.41413,-14.86311,1007.632
3.291870117,-73.52235,6.607599,348.0371,0.08945653,0.543623,-0.1265864,-37.01209,-21.41413,-14.86311,1007.631
3.324645996,-46.49981,-2.669952,329.1606,0.3797476,0.1442773,-0.2614544,-41.87396,-14.41181,-14.53171,1007.629
3.357421875,-11.15308,6.962155,308.0849,0.363493,0.05366826,-0.1746341,-45.74647,-1.957426,-15.1579,1007.627
3.392719269,-15.62578,7.612174,281.6334,0.425852,-0.2279679,-0.1276655,-45.74647,-1.957426,-15.1579,1007.627
3.425495148,-22.64543,11.86685,244.4912,0.569611,-0.4500418,-0.1579975,-45.96323,9.771242,-14.9071,1007.625
3.458271027,-52.83612,16.35789,210.0981,0.5038949,-0.591551,-0.1874728,-42.14206,19.66218,-15.06794,1007.622
3.491047382,-10.594,21.1444,171.3066,0.6404638,-0.893053,-0.425135,-42.14206,19.66218,-15.06794,1007.622
3.526344299,43.38896,59.14099,118.8922,0.6152475,-0.9225473,-0.503974,-38.65607,28.04145,-14.76932,1007.62
3.559120178,93.95527,112.4426,68.43266,0.6952445,-1.107134,-0.6699554,-33.59554,33.18006,-15.72737,1007.618
3.591896057,152.473,199.0134,15.10195,0.5636078,-0.8528918,-0.5106956,-33.59554,33.18006,-15.72737,1007.618
3.624672413,118.2445,271.5792,-28.02689,0.3696804,-0.7018256,-0.125374,-30.01061,35.65276,-20.8692,1007.618
3.657448292,88.05379,328.1309,-69.99505,0.3779025,-0.6057749,0.2999856,-25.61607,33.33339,-29.79133,1007.618
3.692745209,-184.9049,-23.82513,-45.43726,-3.395012,2.343087,2.920691,-25.61607,33.33339,-29.79133,1007.618
3.725521564,-84.89044,-59.28074,65.37821,2.335685,-1.255576,-0.03533687,-19.67999,29.95189,-36.14971,1007.618
3.758297443,84.14019,21.9126,-15.32038,0.2540653,-0.8146737,0.2447561,-17.48233,29.63487,-32.29295,1007.618
3.791073322,17.04975,14.93967,-16.90869,0.7168862,-0.4020319,0.4057368,-17.48233,29.63487,-32.29295,1007.618
3.826370239,35.4375,7.848545,-32.9751,0.7047657,-0.607915,0.4397711,-17.56419,34.00217,-32.79683,1007.618
3.859146595,37.73597,14.11237,-31.81441,0.6619769,-0.3424963,0.6286477,-17.53184,32.1681,-33.6384,1007.618
3.891922474,-5.25161,5.366652,-31.99768,0.6002459,-0.5041184,0.7137574,-18.2344,30.7002,-34.48476,1007.618
3.924697876,-22.02422,-4.856382,-33.34164,0.6919016,-0.4662836,0.6513873,-18.2344,30.7002,-34.48476,1007.618
3.957474709,-53.9543,-3.201786,-43.97113,0.5965595,-0.377309,0.7439008,-17.8568,29.97046,-34.47377,1007.618
3.992771626,-68.92541,-18.03405,-53.13448,0.5472394,-0.4689301,0.7249015,-18.95362,30.35535,-33.17276,1007.618
4.025547504,-96.38279,-26.36612,-67.36822,0.5623837,-0.3481807,0.4912231,-18.95362,30.35535,-33.17276,1007.618
4.058323860,-70.1057,-32.33448,-88.44393,0.5050111,-0.7129977,0.5568929,-20.79003,31.48783,-30.63909,1007.618
4.091099739,-14.13488,-50.65321,-104.3271,0.5829286,-0.3971682,0.5658593,-22.62644,32.62032,-28.10542,1007.618
4.126396656,16.86339,-38.6574,-126.197,0.6945719,-0.4210735,0.3557568,-22.62644,32.62032,-28.10542,1007.617
4.159172535,46.61924,-31.21172,-142.8132,0.6663182,-0.3868635,0.3365178,-25.94208,31.5469,-27.2137,1007.618
4.191948891,36.86628,-26.72067,-159.0018,0.7431723,-0.2578571,0.2355364,-29.88608,28.27656,-27.15696,1007.618
4.224724770,32.02085,-15.13851,-173.6631,0.6718324,-0.07702874,0.2007751,-29.88608,28.27656,-27.15696,1007.617
4.257500172,25.00121,-3.674528,-180.5662,0.7158449,-0.02129821,0.1076838,-33.09404,24.57931,-27.09447,1007.617
4.292797566,13.63311,15.70787,-198.0376,0.7986137,0.08135207,0.06160345,-36.68731,18.75719,-26.99802,1007.617
4.325573921,20.21791,38.22218,-205.2461,0.6890887,0.1999395,0.08719667,-36.68731,18.75719,-26.99802,1007.617
4.358349323,46.12227,40.4677,-205.0629,0.7595604,0.6025781,0.1918409,-38.40588,13.22831,-27.34388,1007.615
4.391125202,-12.0849,56.77728,-199.5038,0.7058772,0.7241804,0.2336634,-39.00775,6.287922,-28.5394,1007.615
4.423901558,-0.7167935,56.60001,-188.9965,0.6902802,0.770111,0.343863,-39.00775,6.287922,-28.5394,1007.617
4.459198952,-45.81647,67.05942,-186.3085,0.583467,0.7719294,0.3835853,-38.1656,0.01302576,-29.68515,1007.617
4.491974354,-48.05283,66.4094,-181.9101,0.3788001,0.6851158,0.4722908,-35.51855,-5.483413,-31.34294,1007.615
4.524751186,-31.09385,59.96829,-174.8238,0.1828748,0.798413,0.5414194,-35.51855,-5.483413,-31.34294,1007.621
4.557526588,-41.65438,48.74068,-162.4227,0.1109258,0.8586184,0.6709857,-32.49429,-8.501589,-33.84849,1007.621
4.592823982,-45.75436,49.03614,-144.8902,0.09694443,0.8206668,0.6932187,-29.17099,-11.06645,-34.24772,1007.621
4.625599384,-34.32413,46.37697,-119.6604,0.01493923,1.230487,0.8232445,-29.17099,-11.06645,-34.24772,1007.621
4.658376217,-102.0358,40.4677,-81.41869,0.1676936,1.34028,0.9497963,-26.95334,-12.89896,-34.59484,1007.623
4.691151619,-48.86039,23.74448,-17.76394,-0.01497814,1.628164,1.175554,-24.40095,-13.29328,-36.33285,1007.623
4.723927498,-74.82688,-0.9562643,9.726119,0.1886432,0.6546161,0.7274281,-24.40095,-13.29328,-36.33285,1007.624
4.759225368,8.911926,4.716633,7.099291,0.007400735,0.2319036,0.3905791,-23.27643,-11.84934,-37.16532,1007.624
4.792000771,-6.05918,19.4898,1.845636,-0.001603191,0.5929043,0.6264051,-21.84862,-10.40697,-38.06034,1007.624
4.824776649,-28.91963,21.55805,-4.874156,0.04076213,0.8209355,1.009606,-21.84862,-10.40697,-38.06034,1007.624
4.857552528,-24.57117,6.075765,4.71682,0.08865831,0.6802069,0.9557921,-22.23371,-9.318727,-38.51217,1007.626
4.892850399,31.46177,1.880185,5.633155,0.01988774,0.548077,0.6678187,-21.87567,-8.949219,-38.08326,1007.626
4.925625801,16.67702,3.712058,5.9386,0.0640257,0.5719301,0.6830817,-21.89064,-8.232232,-38.96495,1007.626
4.958401680,30.52996,3.357502,6.916025,0.06125768,0.7363142,0.7925909,-21.89064,-8.232232,-38.96495,1007.628
4.991178036,25.99514,1.99837,15.52958,0.1206081,0.6814663,0.7482476,-21.88253,-8.58563,-38.15115,1007.628
5.023953915,55.99948,4.834818,20.78323,0.08074588,0.6935524,0.7131845,-21.86891,-9.313655,-38.07753,1007.628
5.059250832,52.89344,0.7574235,31.90143,0.07946388,0.8033427,0.6042343,-21.86891,-9.313655,-38.07753,1007.63
5.092026711,62.46004,5.012096,26.40342,0.0624564,0.798456,0.552295,-21.47633,-10.76039,-37.18486,1007.63
5.124803066,48.04802,10.09407,27.31976,0.121387,0.9330333,0.5736136,-22.18493,-11.8579,-37.60184,1007.63
5.157578945,6.364975,20.73075,26.40342,0.1128638,0.8444219,0.5882083,-22.18493,-11.8579,-37.60184,1007.63
5.192875862,-6.990992,22.91718,18.70621,0.1524523,0.7331039,0.5714345,-22.53476,-12.57996,-37.1548,1007.631
5.225652218,-10.03491,20.96712,7.83236,0.1797625,0.7200325,0.7600831,-21.43586,-12.94786,-37.21264,1007.633
5.258428097,4.874076,0.3437747,-3.652375,0.003712888,0.6233706,0.7288766,-21.43586,-12.94786,-37.21264,1007.631
5.291203976,40.03444,-10.88383,-7.256628,0.01387463,0.6264396,0.6677149,-21.0799,-12.59533,-38.0269,1007.633
5.323980331,43.07835,-5.092752,-10.37217,0.06736369,0.7861721,0.6009194,-20.72258,-12.23177,-38.0331,1007.631
5.359277248,22.64062,5.543931,-14.28187,0.1245631,0.8225026,0.5737727,-20.72258,-12.23177,-38.0331,1007.631
5.392053127,42.20866,7.789452,-20.26859,0.05039698,0.7733374,0.5966467,-21.42151,-13.66994,-36.70391,1007.631
5.424829006,45.87379,11.39411,-18.49701,0.08368159,0.8681771,0.6074961,-20.66631,-15.12943,-36.68193,1007.633
5.457605362,47.17833,15.94424,-22.89541,0.0002183329,0.8456009,0.6130231,-20.66631,-15.12943,-36.68193,1007.639
5.492902279,51.15406,17.1261,-23.56739,0.06565116,0.8942965,0.6031673,-20.27519,-16.58805,-36.65948,1007.639
5.525678158,45.19046,23.21264,-22.77324,0.1427126,0.9457269,0.552364,-20.23931,-18.39326,-35.38765,1007.639
5.558454513,12.39069,30.30376,-21.91799,0.09826805,1.07064,0.6389263,-20.23931,-18.39326,-35.38765,1007.641
5.591230392,-34.32413,41.64956,-15.44256,0.1622063,0.9101251,0.5220456,-18.74058,-20.63816,-34.91909,1007.641
5.624006271,-9.724306,44.66328,-14.95384,0.04536289,0.8412228,0.5594915,-17.25795,-22.10535,-35.33316,1007.639
5.659303188,-6.990992,48.09066,-9.761277,-0.03587365,0.9034129,0.5653667,-17.25795,-22.10535,-35.33316,1007.639
5.692079544,-12.58186,52.04987,-3.591286,0.007059775,0.8013781,0.4787736,-15.4593,-21.02829,-36.22292,1007.639
5.724855423,2.76197,49.03614,-2.12515,-0.05802114,0.80717,0.4794006,-12.89724,-21.76327,-36.21474,1007.637
5.757631302,22.08153,49.92253,2.151081,-0.09277095,0.9071477,0.400389,-12.89724,-21.76327,-36.21474,1007.636
5.792928696,-12.0849,48.20885,-0.5368356,-0.1174111,0.8573549,0.4135192,-11.08434,-21.40914,-36.65794,1007.636
5.825704575,20.21791,49.15433,-0.9644588,-0.1070483,0.7792143,0.3702899,-9.203895,-21.41874,-37.03332,1007.63
5.858480453,20.52851,49.68616,-4.079998,-0.1091929,0.8613985,0.3547675,-9.203895,-21.41874,-37.03332,1007.634
5.891256809,6.551337,57.25003,-10.67761,-0.1411936,0.8330692,0.3115636,-7.010592,-21.77143,-35.78723,1007.634
5.924032688,-41.15742,74.26872,-21.3071,-0.1059194,0.9003771,0.2829781,-5.535452,-22.88012,-36.64214,1007.63
5.959329605,-14.07276,82.4826,-21.06274,-0.1807802,0.7504648,0.3868744,-3.357749,-22.52092,-36.65069,1007.63
5.992105484,22.70274,75.56876,-20.69621,-0.3238722,0.9102219,0.4899844,-3.357749,-22.52092,-36.65069,1007.634
6.024881840,16.05582,62.68656,-20.69621,-0.2947778,0.9219662,0.4629414,-0.4721752,-21.07015,-36.67737,1007.634
6.057657719,16.67702,59.43645,-21.55146,-0.3247635,0.8599378,0.4038986,2.880177,-21.79514,-35.8,1007.634
6.092954636,2.513487,64.10478,-29.18758,-0.3572086,0.8408383,0.4978698,2.880177,-21.79514,-35.8,1007.634
6.125730991,21.3982,51.57713,-24.1172,-0.254234,1.023054,0.4530657,4.694529,-21.42912,-35.37297,1007.634
6.158506870,-24.57117,55.65452,-25.09462,-0.3148622,0.9705661,0.3319854,7.25867,-22.14712,-34.12162,1007.636
6.191282749,-46.81041,68.41855,-32.36421,-0.2773007,0.8826542,0.2516415,7.25867,-22.14712,-34.12162,1007.634
6.224058151,-22.33482,71.37318,-34.31906,-0.5019872,0.8454582,0.3557232,9.072398,-21.7862,-34.06754,1007.634
6.259356022,-17.55152,62.80474,-33.34164,-0.4261598,0.8180269,0.3820596,11.95256,-19.95996,-33.29189,1007.632
6.292131901,10.89979,60.38194,-37.92331,-0.540687,0.7701269,0.2851683,11.95256,-19.95996,-33.29189,1007.632
6.324907780,10.3407,61.62289,-47.88082,-0.605859,0.606806,0.2701655,14.17026,-18.44091,-32.88354,1007.632
6.357684136,17.42247,40.5268,-56.25002,-0.6661274,0.6427755,0.3323499,16.72774,-18.79362,-31.57577,1007.632
6.392981052,38.10869,28.82645,-60.40407,-0.7228276,0.7809154,0.2345598,16.72774,-18.79362,-31.57577,1007.632
6.458532810,-4.319798,10.74409,-68.95654,-0.7313495,0.8857731,0.1954316,20.33824,-16.95129,-29.49572,1007.63
6.491309166,-31.09385,25.1627,-83.67899,-0.6303751,0.5079339,0.2992544,20.33824,-16.95129,-29.49572,1007.63
6.524085045,1.830158,11.80775,-80.62453,-0.9697168,0.7021779,0.414812,21.42371,-16.58947,-29.50286,1007.632
6.559381962,-16.49547,3.416594,-61.56476,-0.6560168,1.096098,0.3740025,23.19677,-14.04278,-29.54532,1007.632
6.592158317,-48.86039,12.16231,-62.90872,-0.5365702,0.4555745,0.2211302,23.19677,-14.04278,-29.54532,1007.632
6.624934196,-29.23023,14.23055,-61.87021,-0.8568593,0.5896505,0.2760817,24.32191,-12.59373,-30.00484,1007.634
6.657709598,-42.46196,19.43071,-59.79318,-0.9374517,0.3886437,0.3232679,25.36078,-9.674912,-29.61698,1007.634
6.693006992,-17.86213,16.35789,-62.54219,-0.9120819,0.3220362,0.2395511,25.36078,-9.674912,-29.61698,1007.634
6.725783348,-33.45444,14.82148,-58.5714,-0.957166,0.512727,0.3308294,26.06189,-8.21891,-29.64084,1007.634
6.758559227,-22.33482,5.780301,-55.63913,-0.7363671,0.55338,0.2383043,26.74159,-5.608857,-29.68284,1007.634
6.791334629,-63.58302,13.46235,-60.52625,-0.8606724,0.3588973,0.295693,26.74159,-5.608857,-29.68284,1007.632
6.824111462,-33.39232,4.421169,-53.68428,-0.9755597,0.2846707,0.335549,27.42241,-3.059543,-29.72389,1007.632
6.859408379,-34.94534,4.421169,-55.63913,-0.8700868,0.237684,0.3156339,27.74592,-0.8737931,-29.75874,1007.632
6.892184257,-58.48912,0.5801454,-51.48507,-0.8890525,0.4567957,0.3302708,28.06402,1.687431,-28.99125,1007.63
6.924960613,-47.3695,-0.1880594,-48.36953,-0.8096495,0.145258,0.3291079,28.06402,1.687431,-28.99125,1007.63
6.957736492,-28.60902,1.289258,-40.42796,-1.019552,0.1948983,0.2958356,27.65159,4.300951,-28.96969,1007.63
6.993033409,-29.47871,-1.842654,-29.49303,-1.016576,-0.03188518,0.3178317,27.25298,6.118065,-29.43298,1007.635
7.025809288,-16.49547,2.175648,-30.47045,-0.9588352,-0.001752916,0.3792636,27.25298,6.118065,-29.43298,1007.635
7.058585644,0.7119844,-6.038235,-15.93127,-1.024571,0.2620206,0.2890073,27.22594,7.575813,-29.4559,1007.636
7.091361046,1.333192,-12.71571,-10.79979,-0.9000764,-0.01734977,0.3069435,26.82805,9.39887,-29.48408,1007.635
7.124136925,-4.009195,-5.329123,-10.79979,-0.9006004,0.009323945,0.3612984,26.82805,9.39887,-29.48408,1007.635
7.159434795,-8.606133,-4.265455,3.800485,-1.029974,0.1084751,0.4172938,26.4647,9.405687,-29.0485,1007.635
7.192210674,14.93764,5.543931,-4.507622,-0.7849984,0.1987581,0.3588132,26.82805,9.39887,-29.48408,1007.633
7.224986076,-2.145571,7.08034,1.051479,-1.057,0.2295268,0.3478593,26.82805,9.39887,-29.48408,1007.633
7.257762909,-1.959209,13.16689,0.01296555,-0.963228,0.2160562,0.3991629,26.46252,9.387856,-30.35384,1007.633
7.293059826,-5.997059,14.88057,2.578704,-1.007496,0.01794037,0.2580462,26.83409,9.02849,-29.91347,1007.633
7.325835705,4.31499,23.50811,-4.446533,-0.9089526,0.04712931,0.3448949,26.83409,9.02849,-29.91347,1007.635
7.358611107,-10.15915,18.18977,-8.722764,-1.070865,0.1044892,0.1733464,27.55756,9.408163,-28.67696,1007.635
7.391387940,-17.1788,22.14898,-16.35889,-0.8218672,0.1873691,0.3762469,27.19348,9.409037,-28.67649,1007.635
7.424163342,-16.12275,35.91757,-8.96712,-1.003637,0.2877934,0.5382642,27.19348,9.409037,-28.67649,1007.635
7.459460735,-33.14384,48.09066,-5.362868,-0.8396957,0.146438,0.4649214,28.28716,9.418306,-27.80768,1007.635
7.492237091,-31.90142,51.57713,-11.22741,-0.727298,0.003491404,0.2246708,28.2622,10.89304,-26.58742,1007.633
7.525012493,-15.06669,53.05445,-11.34959,-1.020129,0.2116504,0.1841358,28.2622,10.89304,-26.58742,1007.633
7.557788372,-23.08027,50.63165,-9.455832,-1.086063,0.1818997,0.257504,28.62242,11.28038,-24.85317,1007.635
7.593085766,-35.1317,58.2546,-29.6763,-0.9738072,-0.3031802,0.05435287,30.06125,12.39313,-23.19395,1007.635
7.625862121,-13.26519,56.71819,-39.69489,-1.175443,0.1563507,0.05269445,30.06125,12.39313,-23.19395,1007.635
7.658637524,-31.03173,53.17263,-44.33766,-0.8865464,0.1847763,0.1511269,30.40868,13.51528,-21.03605,1007.635
7.691413402,-14.63185,40.29043,-46.72013,-1.07081,0.2816236,0.1518994,31.48946,14.25852,-19.80575,1007.636
7.724189758,-38.36198,39.99496,-58.69358,-1.084582,-0.06066176,0.1134576,31.48946,14.25852,-19.80575,1007.636
7.759487152,-53.39521,44.84056,-69.01762,-1.19155,-0.006196088,0.09004248,31.09409,16.17204,-17.65932,1007.636
7.792262554,-70.72691,37.45398,-75.73741,-1.066183,-0.03203261,0.1461034,30.70504,17.64764,-16.4386,1007.636
7.825039387,-69.73298,39.81768,-84.1677,-1.258348,-0.09893712,0.07108622,30.70504,17.64764,-16.4386,1007.636
7.857814789,-99.17822,42.00411,-84.53423,-1.027335,-0.0387378,0.1156956,29.57649,19.87169,-13.92306,1007.636
7.890590668,-92.90402,52.22715,-76.83701,-1.215272,-0.2482451,0.05002918,29.14906,23.55175,-11.43138,1007.635
7.925887585,-126.6977,56.18636,-69.38416,-1.189443,-0.2763732,0.1063296,27.28706,26.15387,-8.050402,1007.636
7.958663940,-118.2493,50.92711,-64.19159,-1.094619,-0.3446389,0.05085101,27.28706,26.15387,-8.050402,1007.636
7.991439819,-104.1479,49.98162,-52.27923,-0.9993474,-0.1740811,0.08983964,26.16818,28.03727,-3.788685,1007.636
8.024215698,-90.04647,40.82226,-38.77856,-0.9169691,-0.109853,0.05200124,23.96936,29.2543,0.4227889,1007.636
8.059513569,-91.35101,22.7399,-13.12117,-0.8193257,0.07399024,0.03753307,23.96936,29.2543,0.4227889,1007.636
8.092288971,30.46784,1.230165,5.877511,-0.8765841,-0.4006794,-0.2157747,23.18541,29.2961,3.345271,1007.636
8.125064850,115.0763,-46.10307,31.71817,-0.9077394,0.07160923,-0.05852599,21.37251,28.94196,3.788462,1007.635
8.157841206,50.96769,-71.86748,44.97448,-0.9068643,-0.082923,-0.00967762,21.37251,28.94196,3.788462,1007.633
8.190617085,104.9506,-99.87741,54.07674,-0.8479481,-0.4213527,-0.3515555,20.66234,27.76164,1.756306,1007.633
8.225914002,131.1035,-81.3814,61.65178,-0.9914376,-0.05514782,-0.04610238,19.96301,25.90044,-1.197727,1007.633
8.258690834,46.61924,-112.1096,76.49641,-0.9962757,-0.08875994,-0.1813029,19.96301,25.90044,-1.197727,1007.633
8.291466236,24.50424,-56.26702,74.17503,-1.078063,-0.2154892,-0.2372372,19.97227,25.13675,-3.734778,1007.633
8.324242115,-46.06496,-29.32075,60.67436,-1.521255,-0.2979459,-0.3559209,19.26898,23.66292,-5.016253,1007.631
8.359539032,-35.56655,-84.74968,89.56947,-1.372079,-0.5955836,-0.6133546,19.26898,23.66292,-5.016253,1007.631
8.392315865,30.52996,-43.26662,85.72086,-1.121356,-0.397883,-0.2898094,19.99641,23.65523,-5.452306,1007.629
8.425091267,18.97549,-13.30663,63.85099,-1.108249,-0.6003673,-0.2876099,22.1944,22.92112,-5.443665,1007.628
8.457867146,53.26616,-1.015357,47.78458,-1.133703,-0.06836835,-0.09532528,22.1944,22.92112,-5.443665,1007.628
8.490643501,-41.77863,-2.138118,26.83105,-1.07497,-0.2474961,-0.01095631,24.45848,21.81139,-6.237437,1007.626
8.525940418,5.868009,9.325862,3.43395,-1.042501,-0.2305604,-0.06593408,26.2849,21.43664,-6.669168,1007.626
8.558716297,-30.28628,10.6259,-3.285841,-1.108385,-0.08223613,-0.01882791,26.2849,21.43664,-6.669168,1007.627
8.591492653,-42.52407,13.58053,-4.935245,-0.9256075,-0.153288,0.04968039,27.74942,21.0806,-5.795094,1007.627
8.624268532,-45.75436,15.05785,-4.385444,-1.013264,-0.04231744,0.07427049,28.82948,21.8179,-4.999899,1007.625
8.659565449,-38.79683,6.725784,0.07405458,-0.9261344,-0.1276721,0.09200285,28.82948,21.8179,-4.999899,1007.623
8.692341328,-16.06063,1.643814,1.967814,-0.9573034,-0.08745458,0.09971795,29.18752,22.18741,-4.570988,1007.621
8.725117683,6.054371,-7.811016,8.259982,-0.879657,-0.07032783,0.0879553,30.29473,21.4678,-3.690713,1007.621
8.757893562,29.53603,-7.101903,14.42997,-0.8755144,0.02212315,0.07047711,30.29473,21.4678,-3.690713,1007.62
8.790669918,33.57388,-12.65662,21.57739,-0.8662607,0.01910231,0.1152264,30.29473,21.4678,-3.690713,1007.62
8.825967312,51.15406,-15.43397,30.80183,-0.8246264,0.06599434,0.08473115,31.38624,21.45924,-4.127234,1007.616
8.858742714,69.54181,-13.54301,38.49905,-0.7852163,0.0210875,0.02309105,31.38624,21.45924,-4.127234,1007.612
8.891518593,106.0067,-11.71113,43.08072,-0.9102259,0.1095688,0.01025743,32.11221,21.43966,-5.43351,1007.612
8.924294949,88.24016,-11.59295,45.27993,-0.8817361,0.1825891,0.04088695,32.51478,19.23519,-6.642776,1007.61
8.959591866,58.67067,-2.019933,50.16705,-0.9664101,0.2598084,0.0409714,32.89623,18.11723,-8.366502,1007.608
8.992367744,15.24825,-1.96084,47.05151,-0.9681823,0.1851666,0.02520317,32.89623,18.11723,-8.366502,1007.608
9.025144100,-2.207692,0.5210528,42.46983,-0.9672,0.1828233,0.03723841,34.03558,15.49177,-9.134912,1007.608
9.057919979,-3.201624,1.761999,33.1843,-0.9511662,0.1815997,0.05212444,34.79005,14.02634,-9.548043,1007.608
9.090695858,-5.810697,-0.2471521,27.25867,-0.9924783,0.1958025,0.04305515,34.79005,14.02634,-9.548043,1007.608
9.125992775,-4.941006,-3.792713,22.31046,-0.9134198,0.2364895,0.05580308,34.81033,12.93303,-9.530853,1007.607
9.158769131,-11.21521,-1.251728,16.01829,-0.9284708,0.2343689,0.04910291,35.96928,12.55988,-9.961723,1007.607
9.191545010,-11.52581,-6.038235,9.115229,-0.9411409,0.2532542,0.04862313,35.96928,12.55988,-9.961723,1007.605
9.224320889,-14.44549,-0.2471521,0.5627667,-0.9626577,0.3219241,0.07408284,35.56553,11.47353,-9.508873,1007.605
9.259618759,-27.98781,-0.7198936,-0.3535686,-1.067505,0.3039261,0.06328733,35.55273,12.20835,-9.08522,1007.605
9.292394161,-28.48478,-4.738196,0.9293008,-0.9674196,0.2905182,0.1160199,35.55273,12.20835,-9.08522,1007.605
9.325170040,-23.70148,0.5801454,2.151081,-1.050809,0.2261664,0.06721582,36.3476,11.83608,-9.515621,1007.605
9.357946396,-12.14702,-5.151845,7.771271,-1.028445,0.2257772,0.1244454,35.96397,12.9362,-9.097229,1007.605
9.390722275,9.346772,-3.083601,10.64245,-1.052729,0.2305386,0.1379739,35.96397,12.9362,-9.097229,1007.607
9.426019192,8.042235,-10.58837,12.47512,-0.9881961,0.2636698,0.2022734,36.34157,12.20646,-9.086239,1007.607
9.458795071,8.166477,-6.747347,6.610579,-0.9579548,0.2064452,0.2013252,35.55877,11.83797,-9.514603,1007.605
9.491571427,15.37249,-11.12021,6.977113,-1.051252,0.2298513,0.1774432,35.55877,11.83797,-9.514603,1007.605
9.524347305,23.94516,-11.77023,4.594642,-0.9109646,0.2470437,0.1698641,36.3604,11.10126,-9.939273,1007.607
9.559644222,4.501352,-3.556342,-1.575349,-1.029053,0.2819419,0.1474676,36.72375,11.09444,-10.37485,1007.607
9.592420578,5.681646,-9.288333,-2.797129,-0.9658651,0.2541775,0.1411018,36.72375,11.09444,-10.37485,1007.607
9.625196457,1.643796,-4.797289,-7.562072,-0.9207382,0.2717509,0.1626296,36.72979,10.72406,-10.80424,1007.608
9.657972336,3.445299,-6.215513,-10.24999,-0.9799617,0.2598842,0.1382385,35.99414,11.0843,-11.24414,1007.606
9.690748691,14.00583,-10.70656,-10.98306,-0.9727719,0.2918175,0.09918301,35.99414,11.0843,-11.24414,1007.604
9.726045608,-2.891021,-4.442733,-11.22741,-0.9544372,0.353285,0.1616239,36.35822,11.08343,-11.24461,1007.604
9.758821487,-2.02133,-3.49725,-8.172963,-0.9479643,0.2815942,0.1400553,36.34407,11.80721,-11.62902,1007.604
9.791597366,-0.2198272,0.04831128,-4.202177,-0.9500347,0.3386739,0.1563405,36.34407,11.80721,-11.62902,1007.602
9.824373722,-12.20914,1.407443,-2.247328,-0.9965749,0.3071187,0.1569798,35.9671,12.54205,-11.26706,1007.602
9.859670639,-15.75002,0.284682,-1.758616,-0.9416047,0.2642009,0.1525819,35.55524,11.8091,-11.628,1007.604
9.892446518,-11.58793,0.9937943,-3.591286,-0.9581095,0.2686808,0.1863096,35.1844,12.17441,-11.63326,1007.604
9.925222874,-8.606133,-2.019933,-2.12515,-0.9726585,0.2572237,0.1671069,35.1844,12.17441,-11.63326,1007.606
9.957998753,4.625593,-2.433581,-1.697527,-0.9303519,0.2272299,0.1453905,35.96648,12.53695,-11.64001,1007.606
9.990774631,2.637728,0.107404,-1.758616,-0.983454,0.3033519,0.1598426,35.5491,12.17863,-11.26078,1007.606
10.026072025,4.501352,-1.547191,-1.025548,-0.9702527,0.2599284,0.1329204,35.5491,12.17863,-11.26078,1007.606
10.058847904,1.208951,0.5210528,-1.086637,-0.9377863,0.2955269,0.170336,35.17826,12.54394,-11.26604,1007.606
10.091623783,-1.151639,1.407443,0.1962326,-0.9945472,0.2695768,0.1488484,35.17764,12.53885,-11.63899,1007.606
10.124400139,6.054371,-1.07445,2.21217,-0.9624195,0.2352352,0.1444917,35.17764,12.53885,-11.63899,1007.606
10.159697056,1.457434,1.761999,2.945238,-0.9654582,0.2933613,0.1723303,35.96034,12.90649,-11.27279,1007.606
10.192472935,-1.400122,0.2255893,2.395437,-0.9682381,0.2337992,0.1550977,35.97386,12.17761,-11.26133,1007.608
10.225248814,7.358908,-0.1289668,1.60128,-0.9706448,0.2245121,0.1531919,35.97386,12.17761,-11.26133,1007.606
10.258025169,29.53603,0.46196,2.273259,-0.9851401,0.1941949,0.153272,35.55586,11.81419,-11.25505,1007.6
10.290801048,41.02837,-3.260879,2.273259,-0.9790539,0.2897148,0.1545577,35.97251,12.16657,-12.06939,1007.6
10.326097965,20.59063,-1.842654,1.723458,-0.9708936,0.328719,0.1506287,35.97251,12.16657,-12.06939,1007.6
10.358874321,-3.387987,0.5801454,-1.697527,-0.9582695,0.3323507,0.1674409,35.97178,12.16063,-12.5045,1007.602
10.391650200,-7.550079,0.5801454,-4.018909,-1.000857,0.2665351,0.1392408,35.19043,11.80403,-12.06264,1007.602
10.424426079,2.140762,-1.783562,-4.935245,-0.9727376,0.2878093,0.1531015,35.19043,11.80403,-12.06264,1007.602
10.459722996,-4.319798,0.8756089,-6.584648,-0.9669948,0.3198811,0.1357105,35.98603,11.4377,-12.05793,1007.608
10.492499352,-15.19094,0.1664966,-7.317717,-0.9796526,0.3374427,0.1549685,35.97855,11.79619,-12.49877,1007.608
10.525275230,-26.68328,2.116555,-7.378806,-0.9655572,0.3322229,0.1578311,35.97855,11.79619,-12.49877,1007.606
10.558051109,-33.88929,2.23474,-7.928607,-0.9790899,0.3032946,0.1463542,35.60843,12.16745,-12.06892,1007.606
10.590827465,-36.18776,1.643814,-5.790491,-0.996944,0.2558998,0.1459866,35.95358,13.27092,-11.27852,1007.606
10.626124382,-36.68472,0.6392381,-4.874156,-0.9876395,0.2304356,0.1849932,35.95358,13.27092,-11.27852,1007.606
10.658900261,-38.67259,2.766575,-6.829004,-0.9715101,0.1796875,0.1518175,35.1715,12.90838,-11.27177,1007.606
10.691676617,-38.17562,3.239316,-10.61652,-0.998655,0.1675662,0.1923345,35.52819,13.26685,-11.65092,1007.602
10.724452496,-30.3484,0.4028674,-15.99236,-1.022219,0.06386693,0.1564445,35.52819,13.26685,-11.65092,1007.6
10.757227898,-18.9803,-0.7198936,-22.52888,-0.9548725,0.1227326,0.1359789,35.5182,14.02459,-9.548983,1007.598
10.792525291,-37.86502,4.066613,-30.65372,-1.025718,0.1052057,0.1520583,35.92195,15.11094,-10.00183,1007.598
10.825301647,-32.95748,5.012096,-38.59529,-0.9021481,0.001316433,0.1220773,35.92195,15.11094,-10.00183,1007.598
10.858077526,-32.83323,14.40783,-46.47578,-1.014885,0.03794118,0.1314354,35.12781,15.48915,-9.136321,1007.598
10.890852928,-24.75753,9.916789,-50.01894,-0.8699712,-0.05549203,0.1086085,34.73629,17.01446,-8.724615,1007.601
10.926150799,-20.96817,22.26716,-59.18229,-0.9448349,-0.02210778,0.09670172,33.6116,18.8503,-7.943789,1007.601
10.958926678,-21.89998,18.42614,-64.61922,-0.8719126,-0.06256767,0.07396575,33.6116,18.8503,-7.943789,1007.597
10.991702557,-33.26808,30.71741,-70.8503,-0.9273235,-0.03360035,0.1038979,32.49377,20.32255,-7.095078,1007.597
11.024478912,-16.68183,23.5672,-68.52891,-0.9284381,-0.1944502,0.01701654,31.73326,22.15837,-6.252564,1007.595
11.057254314,-13.38943,30.42195,-70.05614,-0.8543817,-0.07678486,0.1095664,31.73326,22.15837,-6.252564,1007.595
11.092551708,-20.96817,30.36286,-67.24604,-1.009844,-0.2606685,0.04763521,30.59578,24.72903,-5.048088,1007.595
11.125327587,24.50424,23.38992,-63.27525,-0.8664783,-0.3050295,0.07961326,28.38572,26.2039,-4.197966,1007.595
11.158103943,10.77555,25.28089,-67.12386,-1.028589,-0.1264951,0.1042781,28.38572,26.2039,-4.197966,1007.595
11.190879345,-5.375852,20.13982,-66.14644,-1.041613,-0.3980198,-0.05509384,26.18097,27.30245,-4.212337,1007.595
11.226176739,0.1528974,27.52641,-63.70287,-0.964187,-0.2711897,0.02058652,23.96979,28.83806,-3.363168,1007.595
11.258953095,-55.32096,34.61753,-65.77991,-0.9833549,-0.3926399,-0.05187059,23.96979,28.83806,-3.363168,1007.593
11.291728973,-45.25739,43.24506,-67.36822,-1.00979,-0.5330932,-0.1868588,22.07593,29.57739,-2.937089,1007.593
11.324504376,-37.74078,42.1223,-62.23674,-0.9883964,-0.327901,-0.1212723,19.51667,30.3353,-1.266972,1007.593
11.357281208,-71.41024,57.4273,-63.15307,-0.9728958,-0.5576774,-0.3346874,19.51667,30.3353,-1.266972,1007.593
11.392578125,-36.68472,62.80474,-58.63249,-1.146773,-0.1234066,-0.2901629,18.41372,31.08971,0.4012654,1007.593
11.425354004,-85.76014,50.80892,-67.24604,-1.042395,-0.6627751,0.04398621,16.59696,31.12379,2.579173,1007.593
11.458130360,69.10696,23.62629,-46.3536,-0.7537004,-0.8304585,-0.253446,16.59696,31.12379,2.579173,1007.597
11.490905762,91.28408,40.23133,-32.66966,-0.7890121,-0.2568825,-0.1637307,14.77179,31.50873,3.75681,1007.597
11.526203155,-1.400122,39.46313,-28.21016,-0.8163443,-0.4209369,-0.259691,13.30602,31.85458,2.13683,1007.597
11.558979034,-7.798562,42.47686,-14.58731,-0.8116665,-0.5635843,-0.3273591,13.30602,31.85458,2.13683,1007.597
11.591755390,10.52707,39.87678,-10.06672,-0.8314518,-0.6234521,-0.3681377,13.29177,32.57751,1.690259,1007.598
11.624530792,25.5603,36.56759,-7.07336,-0.7930092,-0.4546571,-0.3742596,12.57786,31.85632,2.13777,1007.597
11.657306671,43.14048,40.34952,4.71682,-0.7250299,-0.6470349,-0.3154048,12.57786,31.85632,2.13777,1007.598
11.692604542,74.63571,40.58589,12.29186,-0.7272232,-0.5666251,-0.4459698,13.29104,32.57157,1.255147,1007.597
11.725380421,52.02375,41.295,17.0568,-0.8068585,-0.3304296,-0.2829552,13.29104,32.57157,1.255147,1007.597
11.758155823,51.34042,32.4311,27.44193,-0.8080142,-0.6555653,-0.2516553,13.29104,32.57157,1.255147,1007.597
11.790932655,118.0581,25.93091,40.63716,-0.8057587,-0.4031711,-0.3791206,14.35873,33.62745,-1.311964,1007.597
11.826229572,44.25865,31.36743,48.45655,-0.9237836,-0.1601845,-0.2439442,16.1837,33.24081,-2.613918,1007.598
11.859005451,55.62675,15.05785,66.05019,-0.8816481,-0.5332807,-0.2978757,16.1837,33.24081,-2.613918,1007.598
11.891780853,67.24334,17.59884,76.80186,-0.9055236,-0.07867028,-0.2402595,18.01481,32.48465,-4.283095,1007.598
11.924557209,-0.7167935,0.04831128,88.77531,-0.9058853,-0.3014985,-0.06566983,20.57407,31.72674,-5.953213,1007.6
11.957333088,73.95238,-21.46142,92.62392,-0.6428542,-0.4814132,-0.2701199,20.57407,31.72674,-5.953213,1007.604
11.992630482,119.1142,-16.61582,80.77264,-0.9390666,-0.4184618,0.03374567,23.14072,30.60949,-7.244647,1007.602
12.025406837,243.0451,-48.34859,84.9267,-1.101137,-0.08475291,-0.1093373,25.77949,28.74623,-9.767876,1007.602
12.058182240,86.8735,-29.26166,86.08739,-0.8445745,0.08844239,0.1150704,27.6316,26.413,-15.70214,1007.602
12.090958118,64.57214,-34.22544,74.41939,-1.102259,-0.3568138,0.2703885,27.6316,26.413,-15.70214,1007.604
12.126255989,78.61144,-56.91703,61.52961,-1.180109,-0.2973251,0.2338999,29.52065,22.35312,-19.06019,1007.602
12.159031868,71.21906,-55.73518,65.37821,-1.128601,-0.1397397,0.07083998,30.29791,19.39513,-21.99891,1007.604
12.191807270,76.18873,-46.81219,79.00107,-1.023629,0.05396872,0.2055617,30.29791,19.39513,-21.99891,1007.604
12.224584103,58.54643,-43.38481,81.32245,-0.9734612,-0.0002730029,0.259437,30.35378,16.07443,-24.93097,1007.602
12.257359505,44.63137,-49.29408,76.43533,-0.9536361,0.03294059,0.2492313,30.41296,12.71084,-26.55673,1007.602
12.292656899,54.5707,-41.96659,73.50305,-0.8711708,0.03942652,0.1022106,30.41296,12.71084,-26.55673,1007.602
12.325432301,53.57677,-45.0985,64.09534,-0.838567,0.2307186,0.1865646,29.74878,9.03849,-28.67405,1007.604
12.358208656,21.21184,-51.42142,56.76466,-0.8744411,0.2293078,0.3069923,29.80538,5.723745,-31.17099,1007.606
12.390984535,15.37249,-52.72145,53.89348,-0.9947913,0.1829341,0.2264788,29.80538,5.723745,-31.17099,1007.606
12.426281929,6.7377,-49.64864,47.41804,-1.224913,0.2215078,0.5172276,28.38869,3.46289,-32.37695,1007.606
12.459058285,-38.54835,-60.99443,59.69693,-1.314462,0.3019284,0.4932508,26.96255,1.614478,-34.52198,1007.608
12.491833687,-19.72575,-60.81715,70.26534,-1.088628,0.07115169,0.4434827,26.96255,1.614478,-34.52198,1007.608
12.524609566,-11.40157,-64.53999,69.65444,-0.8949684,0.2987809,0.3767337,24.06741,0.5052209,-36.17931,1007.614
12.557385921,-7.550079,-55.79427,51.5721,-0.7547271,0.3389875,0.3869304,22.92657,-0.2327776,-37.03659,1007.614
12.592683315,-21.46513,-57.2125,42.95855,-0.9623165,0.2499872,0.444839,22.92657,-0.2327776,-37.03659,1007.614
12.625458717,2.76197,-65.66274,37.15509,-0.8665813,0.2217043,0.4648718,21.12512,-1.332764,-37.82512,1007.614
12.658234596,7.731632,-57.2125,30.74074,-0.8221809,0.3526957,0.548326,18.93774,-1.351304,-39.56274,1007.615
12.691010952,3.631661,-50.06228,26.34233,-0.7516883,0.3111745,0.5159701,18.93774,-1.351304,-39.56274,1007.614
12.759083748,-3.387987,-42.08477,21.5163,-0.8103421,0.2819415,0.5849881,14.58557,-2.463014,-41.65332,1007.617
12.791860104,10.09222,-43.85755,20.72214,-0.7543422,0.4318835,0.6481689,14.58557,-2.463014,-41.65332,1007.617
12.824635982,-6.618267,-41.67112,22.73808,-0.6870939,0.3270875,0.6255434,13.51893,-3.930032,-42.49921,1007.615
12.857411861,16.18006,-36.58915,24.02095,-0.6061034,0.3711663,0.633468,11.98842,-3.197522,-42.50871,1007.617
12.892709732,-3.387987,-37.94828,24.50966,-0.7118009,0.3040308,0.631413,10.18759,-4.292413,-42.92428,1007.617
12.925485134,24.56636,-32.62994,16.93462,-0.5119622,0.3937613,0.6178071,10.18759,-4.292413,-42.92428,1007.617
12.958261013,-0.9031558,-31.27081,19.31709,-0.6675259,0.4901399,0.7268185,8.372613,-4.663526,-43.72427,1007.617
12.991037369,10.96191,-27.72525,21.57739,-0.6401644,0.4096759,0.6792201,8.020605,-5.403415,-44.58256,1007.617
13.026334763,19.2861,-31.50718,22.37155,-0.5813664,0.3815603,0.6276173,8.020605,-5.403415,-44.58256,1007.617
13.059110165,18.41641,-25.65701,21.69957,-0.5602732,0.5158937,0.7294135,6.207706,-5.757545,-44.13937,1007.617
13.091886044,21.3982,-27.48888,30.4353,-0.5428575,0.3175326,0.6189579,5.12827,-6.489745,-44.56161,1007.619
13.124662399,20.34215,-21.04778,31.16836,-0.5501993,0.5686077,0.7336425,5.12827,-6.489745,-44.56161,1007.619
13.157438278,17.23611,-21.10687,33.67302,-0.5908322,0.4969406,0.702077,4.056321,-7.580438,-44.54301,1007.619
13.192735195,30.28148,-14.31121,29.33569,-0.3877661,0.4577473,0.7050239,2.971251,-8.008941,-44.97003,1007.621
13.225511551,9.905859,-9.465611,31.16836,-0.504319,0.6822942,0.7781289,2.971251,-8.008941,-44.97003,1007.621
13.258287430,21.21184,-8.638313,30.80183,-0.5610617,0.4197353,0.6299185,1.900029,-9.09369,-44.51632,1007.621
13.291063309,47.48893,-14.90214,27.86956,-0.5063462,0.7294444,0.8372701,1.549474,-9.821692,-44.50439,1007.621
13.326361179,20.90124,-23.11602,27.80847,-0.480497,0.44454,0.6681989,1.549474,-9.821692,-44.50439,1007.622
13.359136582,37.239,-26.07065,14.49106,-0.3606926,0.6955383,0.6189189,-0.2970594,-11.63342,-44.0382,1007.621
13.391912460,11.58312,-10.70656,16.81244,-0.4259787,0.589027,0.6490787,-0.6468875,-12.35548,-43.59116,1007.622
13.424688816,-4.816765,-9.524704,23.95986,-0.4406994,0.6592416,0.6783709,-0.6468875,-12.35548,-43.59116,1007.621
13.457464695,8.849806,-12.53843,21.69957,-0.4070223,0.5617023,0.5489516,-1.718836,-13.44617,-43.57256,1007.621
13.492761612,2.824091,-12.83389,22.98244,-0.396958,0.647608,0.7037968,-2.448444,-13.45632,-44.44184,1007.621
13.525537491,11.27252,-19.92501,26.46451,-0.3826307,0.5151837,0.5537776,-2.448444,-13.45632,-44.44184,1007.622
13.558313846,28.29361,-25.7161,27.25867,-0.3456423,0.7042145,0.6578605,-3.181907,-13.07825,-43.57641,1007.622
13.591089725,3.321057,-23.76604,32.57341,-0.3587741,0.7244816,0.7165872,-4.267377,-13.44007,-43.56927,1007.622
13.623865604,12.39069,-29.7344,31.84034,-0.3693166,0.6588932,0.6825343,-4.267377,-13.44007,-43.56927,1007.621
13.659162998,17.11187,-34.28454,39.96518,-0.3084625,0.5982285,0.7104004,-5.345465,-14.16123,-43.18345,1007.621
13.691938877,33.636,-39.4847,46.74606,-0.2623654,0.6163003,0.7324065,-7.165851,-14.15686,-43.1811,1007.622
13.724714756,31.64813,-30.5617,48.2122,-0.2013772,0.6890497,0.6849788,-7.165851,-14.15686,-43.1811,1007.627
13.757491112,25.49817,-20.69322,49.00636,-0.1597054,0.7309727,0.7103289,-9.323272,-15.60938,-43.15536,1007.628
13.792788029,10.0301,-4.38364,39.96518,-0.1780108,0.8922079,0.8059203,-11.13472,-15.95162,-41.84195,1007.63
13.825563908,-59.73153,-11.65204,45.52428,-0.2461253,0.9486295,0.8069595,-11.13472,-15.95162,-41.84195,1007.63
13.858340263,-75.69657,-17.26584,48.09002,-0.2195049,0.53535,0.5962014,-12.63746,-16.67091,-41.39341,1007.632
13.891116142,-0.4683104,-51.06686,42.1033,-0.1005348,0.5495711,0.677248,-13.7507,-15.58093,-41.84431,1007.63
13.923892021,19.03761,-65.13091,31.65708,-0.03287484,0.9219548,0.8469284,-13.7507,-15.58093,-41.84431,1007.632
13.959188938,2.824091,-55.85337,17.97314,0.1075744,0.8391291,0.6739112,-14.89702,-12.66281,-41.88874,1007.633
13.991965294,-17.98637,-41.67112,8.809784,0.1437967,0.9369003,0.7526212,-17.07192,-12.99909,-40.2019,1007.633
14.024741173,-25.37874,-42.32114,2.578704,-0.00479547,0.4986186,0.5890085,-19.62046,-12.99298,-40.19861,1007.633
14.057517052,88.3644,-54.55333,-5.973758,0.05432186,0.5598424,0.6373936,-19.62046,-12.99298,-40.19861,1007.632
14.092814446,117.6233,-50.83049,4.961176,0.09406208,0.7943547,0.6249118,-19.98839,-12.6039,-38.46342,1007.632
14.125590324,103.8946,-27.60706,19.98907,0.2251118,0.8006701,0.5350581,-22.12876,-14.75641,-36.31282,1007.633
14.158366203,109.9203,-15.31579,16.44591,0.1001274,0.8647916,0.4510197,-22.12876,-14.75641,-36.31282,1007.633
14.191142559,100.7264,-13.83847,21.02759,0.1982575,1.044616,0.4182647,-23.94545,-18.00297,-34.14543,1007.633
14.223918438,44.87986,-10.29291,15.28522,-0.05520292,1.021376,0.3226285,-24.2486,-20.93163,-30.67943,1007.633
14.259215355,53.0798,-21.28415,16.20156,0.1560044,0.8132943,0.2622709,-24.2486,-20.93163,-30.67943,1007.633
14.291991234,54.01161,-7.929201,17.42334,0.1481355,0.838943,0.1780126,-24.95647,-22.02319,-30.6613,1007.635
14.324767590,38.29506,-14.78395,15.83502,0.1546511,0.9830928,0.308229,-24.91903,-23.81566,-28.45709,1007.635
14.357543469,8.601322,-0.7198936,26.64778,0.2337094,1.018725,0.2945096,-24.91903,-23.81566,-28.45709,1007.635
14.392840386,4.066506,-8.047386,23.22679,0.1952682,0.8661177,0.3872522,-26.01595,-23.43162,-27.21824,1007.639
14.425616741,26.55423,-8.10648,10.64245,0.162751,0.8468974,0.3238186,-26.00846,-23.79011,-26.7774,1007.641
14.458392620,18.41641,-10.352,-4.874156,0.02640273,1.00485,0.2993545,-26.00846,-23.79011,-26.7774,1007.637
14.491168499,-14.69397,0.6983308,-3.835642,0.1331138,1.036792,0.2119268,-26.74337,-23.42393,-26.78219,1007.637
14.523944855,-30.65901,3.712058,-4.385444,0.1323925,0.9406773,0.2587654,-26.73589,-23.78242,-26.34134,1007.639
14.559241772,-37.67865,-0.5426155,-10.79979,0.1407676,0.9082847,0.3531413,-26.73589,-23.78242,-26.34134,1007.639
14.592017651,-22.2727,-6.747347,-8.96712,0.227942,0.7938305,0.318449,-27.47902,-23.06369,-27.22209,1007.641
14.624794006,-1.524364,-5.27003,-15.80909,0.2530495,0.8559706,0.3293671,-26.75232,-23.07733,-28.09325,1007.639
14.657569885,-4.009195,-3.379064,-13.73206,0.145573,0.9277426,0.3439547,-26.75232,-23.07733,-28.09325,1007.639
14.692866802,-23.82572,2.23474,-13.24335,0.2605878,0.9736583,0.4350714,-26.40103,-22.34338,-27.67007,1007.639
14.725642681,-24.50905,-2.84723,-13.97642,0.1495967,0.882977,0.4152541,-26.76584,-22.34845,-28.10471,1007.639
14.758419037,-28.11205,-11.82932,-17.3974,0.150186,0.8330801,0.3830767,-26.76584,-22.34845,-28.10471,1007.639
14.791194916,-5.127368,-7.338274,-16.8476,0.2077045,0.9304552,0.3091452,-26.40238,-22.35442,-28.47813,1007.638
14.823970795,-61.78152,-0.5426155,-11.47177,0.09633548,1.227344,0.4134174,-26.40925,-21.99083,-28.54602,1007.639
14.859268188,-84.57984,-3.438157,-20.39077,0.07599401,0.5875354,0.3913245,-26.40925,-21.99083,-28.54602,1007.638
14.892044067,29.66027,-1.488098,-3.102574,0.06919634,1.213799,0.4592315,-26.02624,-23.09605,-29.33737,1007.638
14.924819946,-53.27097,2.412019,5.32771,0.07302221,1.041691,0.4984721,-25.70418,-20.92219,-30.24244,1007.639
14.957596302,-46.31344,8.025823,9.66503,0.09301703,0.7820718,0.4006182,-25.70418,-20.92219,-30.24244,1007.639
14.992893219,-16.49547,9.089491,13.88017,0.1175509,0.8958712,0.4870336,-26.06971,-20.93321,-31.11219,1007.639
15.025669098,-25.68934,7.612174,9.176317,0.1935734,0.7921876,0.5438102,-25.72654,-19.84586,-31.50281,1007.639
15.058445454,7.483149,9.089491,5.9386,0.1695724,0.6604425,0.4675292,-26.11275,-18.69688,-31.9556,1007.639
15.091221333,27.42392,5.012096,6.54949,0.1545727,0.8586364,0.5510231,-26.11275,-18.69688,-31.9556,1007.639
15.123997211,3.755903,1.584721,7.16038,0.1905823,0.8283271,0.5615733,-25.7494,-18.7037,-32.39117,1007.638
15.159294128,25.12545,-0.3653375,6.610579,0.1537597,0.7701766,0.4380383,-25.37108,-19.4275,-31.94507,1007.638
15.192070484,39.84808,-3.674528,4.594642,0.1194179,0.9229969,0.4634016,-25.37108,-19.4275,-31.94507,1007.638
15.224846363,-6.245543,-1.429006,4.594642,0.157771,0.9302826,0.4844795,-26.46331,-19.42488,-31.94366,1007.639
15.257622242,-12.76822,1.821092,1.540191,0.127102,0.7616226,0.5006915,-25.72654,-19.84586,-31.50281,1007.639
15.292919636,12.08009,-0.6017082,-5.546135,0.09494342,0.8096244,0.5083972,-25.72654,-19.84586,-31.50281,1007.644
15.325695515,14.13007,-3.438157,-5.912669,0.1059135,0.8889557,0.4870716,-25.3558,-20.21202,-31.5597,1007.644
15.358471394,7.731632,-3.379064,-5.301779,0.1034837,0.8828433,0.4514658,-26.09062,-19.84499,-31.50234,1007.644
15.391247749,2.699849,-2.669952,-4.385444,0.158875,0.8656918,0.4398076,-26.09062,-19.84499,-31.50234,1007.644
15.424023628,4.625593,-2.788137,-6.218114,0.1063606,0.8959336,0.4394053,-26.06898,-20.92726,-30.67708,1007.644
15.459320545,-7.425838,-2.729045,-6.279203,0.1296039,0.9269513,0.4595206,-26.09062,-19.84499,-31.50234,1007.644
15.492096901,-21.77574,-1.665376,-6.767915,0.08017893,0.8821818,0.4544103,-26.09062,-19.84499,-31.50234,1007.644
15.524872780,-12.0849,-3.438157,-4.751978,0.1744653,0.8494633,0.4686768,-25.70626,-20.93917,-31.48562,1007.645
15.557648659,2.016521,-2.433581,-2.613862,0.1583877,0.8717229,0.4672373,-26.08323,-20.20433,-31.12365,1007.641
15.592946052,-1.275881,-1.369913,0.1351436,0.1563682,0.9028262,0.4599748,-26.08323,-20.20433,-31.12365,1007.645
15.625721931,-4.568282,-0.4244302,0.9293008,0.142404,0.8550403,0.4687445,-26.08386,-20.20943,-31.49661,1007.645
15.658497810,3.010453,-0.3062448,0.01296555,0.1157026,0.8538837,0.4745859,-26.44117,-20.57299,-31.49041,1007.645
15.691274166,0.7741051,-0.9562643,0.8682117,0.1506203,0.8721887,0.4735127,-26.44117,-20.57299,-31.49041,1007.647
15.724050045,0.5256221,-1.015357,0.9293008,0.113228,0.8738416,0.4760058,-26.09788,-19.41472,-31.13606,1007.645
15.759346962,0.5877428,-0.5426155,1.234746,0.1351027,0.8622783,0.4677882,-26.44731,-20.20346,-31.12318,1007.645
15.792122841,0.1528974,-1.015357,0.7460337,0.1103417,0.8621186,0.4745862,-26.44731,-20.20346,-31.12318,1007.645
15.824899197,0.6498636,-0.5426155,0.2573216,0.1336899,0.8452738,0.4755189,-26.08458,-20.21537,-31.93172,1007.645
15.857675075,0.7741051,0.04831128,0.01296555,0.1365615,0.8648494,0.4855912,-26.08999,-19.8399,-31.12938,1007.647
15.892971992,2.451366,-0.9562643,0.1962326,0.1316945,0.8656424,0.4653843,-26.08251,-20.19839,-30.68854,1007.645
15.925748348,0.5256221,-0.7789862,1.234746,0.1355492,0.8793517,0.4711309,-26.08251,-20.19839,-30.68854,1007.645
15.958524227,-0.4061896,-1.31082,0.6849447,0.1224638,0.868014,0.4673281,-26.44055,-20.5679,-31.11745,1007.645
15.991300106,-2.02133,-0.1880594,0.5016777,0.1389961,0.8604296,0.4774089,-26.08323,-20.20433,-31.12365,1007.645
16.024076462,-2.518296,-0.2471521,0.5016777,0.132656,0.8720656,0.4774064,-26.08323,-20.20433,-31.12365,1007.645
16.059373379,2.699849,-1.31082,0.5016777,0.129262,0.868074,0.4677933,-26.44117,-20.57299,-31.49041,1007.65
16.092149258,0.5256221,-1.015357,0.6849447,0.1375265,0.862235,0.4586366,-26.08251,-20.19839,-30.68854,1007.645
16.124925613,0.5256221,-1.96084,0.6849447,0.1340964,0.8768743,0.4668058,-26.08251,-20.19839,-30.68854,1007.645
16.157701492,1.271071,-2.669952,1.112568,0.1336275,0.8710694,0.4730734,-26.43982,-20.56195,-30.68234,1007.65
16.192998409,-0.0955857,-2.374489,1.540191,0.1414136,0.8623075,0.4644036,-26.08386,-20.20943,-31.49661,1007.648
16.225774288,-0.4061896,-1.429006,1.173657,0.138021,0.8588432,0.460566,-26.08386,-20.20943,-31.49661,1007.65
16.258550644,-0.2198272,-0.9562643,0.7460337,0.138485,0.8701293,0.4721005,-26.08999,-19.8399,-31.12938,1007.645
16.291326523,-0.4061896,-1.369913,0.3794996,0.1297556,0.8646688,0.4677972,-26.80463,-20.56702,-31.11698,1007.645
16.324101925,-0.4061896,-1.901747,1.356924,0.1622877,0.8654307,0.4682003,-26.80463,-20.56702,-31.11698,1007.645
16.359399796,1.643796,-2.138118,1.540191,0.1472311,0.867767,0.4720834,-26.44658,-20.19752,-30.68807,1007.647
16.392175675,1.333192,-1.547191,0.6238557,0.1307298,0.8632092,0.4668344,-26.44586,-20.19157,-30.25296,1007.647
16.424951553,1.395313,-1.369913,0.8071228,0.1418785,0.8710814,0.4648706,-26.44586,-20.19157,-30.25296,1007.651
16.457727909,-0.0955857,-2.729045,2.761971,0.14624,0.8785605,0.4845849,-26.45334,-19.83308,-30.6938,1007.647
16.490503788,2.202883,-13.89756,4.71682,0.1449133,0.8371429,0.5534852,-26.80921,-20.18476,-29.81738,1007.647
16.525800705,26.86483,-17.79768,4.10593,0.1030952,0.8550604,0.5188993,-26.80921,-20.18476,-29.81738,1007.653
16.558577061,51.89951,-22.82056,11.00899,0.152523,0.8948224,0.5042813,-27.18004,-19.81945,-29.82264,1007.647
16.591352940,50.40861,-40.66655,22.86026,0.09984584,1.002836,0.5518982,-27.52915,-20.53556,-28.94049,1007.649
16.624128342,122.7172,-55.617,30.9851,0.1870544,0.8495135,0.3906663,-27.52915,-20.53556,-28.94049,1007.647
16.659426212,158.4988,-69.68105,58.16971,0.1710559,1.246271,0.3838485,-28.23276,-21.59231,-26.37384,1007.647
16.692202091,201.7348,-83.7451,102.8258,0.3687763,1.168569,0.1784366,-30.01977,-22.9939,-22.55689,1007.645
16.724977970,268.1419,-64.53999,161.288,0.4852126,1.758924,-0.1630521,-30.01977,-22.9939,-22.55689,1007.645
16.757754326,140.8565,-29.7344,221.2774,0.4955494,1.886955,-0.254247,-32.52382,-24.72252,-16.12259,1007.648
16.790530205,84.63715,7.139433,266.5444,0.3569989,1.310466,-0.4138243,-36.94273,-24.62444,-9.714516,1007.648
16.825827122,74.3251,29.59465,296.1725,0.3978081,1.134874,-0.2196676,-36.94273,-24.62444,-9.714516,1007.642
16.858603001,-27.86357,40.11315,291.9574,0.3509241,0.631247,-0.2370891,-40.30514,-19.86107,-8.479442,1007.642
16.891379356,-42.8968,27.40822,276.3186,0.5461703,0.1694372,-0.4154414,-45.19478,-11.40694,-8.606078,1007.64
16.924155235,0.3392597,37.15852,255.5483,0.5333593,0.05126496,-0.3743172,-45.19478,-11.40694,-8.606078,1007.637
16.959452152,26.1815,46.1997,233.373,0.5467344,-0.07076732,-0.4295216,-47.24215,-2.618979,-10.48257,1007.633
16.992228508,24.44212,74.74147,202.6452,0.6880655,-0.2862958,-0.4261624,-46.64656,7.621179,-12.32327,1007.631
17.025004387,30.52996,110.5516,166.2973,0.69475,-0.4410539,-0.4167992,-44.97845,15.60556,-14.56508,1007.631
17.057779789,32.4557,150.8528,132.2096,0.6542997,-0.5770436,-0.3832843,-44.97845,15.60556,-14.56508,1007.631
17.090556622,64.1373,194.0496,87.79788,0.6021556,-0.6834536,-0.2843211,-41.09756,21.7876,-19.39268,1007.63
17.125853539,75.56752,245.5784,41.98112,0.4732655,-0.564628,-0.1311214,-36.06453,24.60936,-25.41235,1007.632
17.158629417,36.86628,309.8121,-3.34693,0.3973559,-0.6905085,-0.0720255,-36.06453,24.60936,-25.41235,1007.63
17.191405773,56.0616,272.6429,-1.269904,1.209829,0.523899,3.25524,-29.83407,24.85437,-33.07168,1007.63
17.224181652,-179.2519,-243.3544,-21.00166,-0.3861904,0.7778586,1.561843,-21.38857,23.66528,-38.59751,1007.629
17.259478569,-141.1097,155.5803,19.8669,1.885799,-0.9106843,0.1649755,-21.38857,23.66528,-38.59751,1007.629
17.292254925,-21.71362,16.35789,16.38482,0.4085574,-0.9363418,0.8429058,-19.91738,22.94395,-37.77986,1007.629
17.325030804,33.51175,-1.547191,-6.157025,0.7371911,-0.7285186,0.6372343,-17.79908,26.59497,-36.96976,1007.627
17.357806683,70.4115,-3.319972,-11.71613,0.7524768,-0.2141077,0.6325719,-17.79908,26.59497,-36.96976,1007.627
17.390583038,-8.606133,6.253043,-9.211476,0.7113065,-0.2446626,0.7005876,-16.71506,26.9449,-37.84712,1007.627
17.425879955,10.52707,-5.447309,-7.928607,0.6446751,-0.408543,0.6769245,-17.41003,25.11937,-38.19049,1007.625
17.458655834,-1.897088,-10.58837,-13.48771,0.6415152,-0.2997796,0.7027616,-17.41003,25.11937,-38.19049,1007.623
17.491432190,-33.14384,-3.438157,-13.91533,0.6216139,-0.2983206,0.7263933,-17.40327,24.75493,-38.18476,1007.622
17.524208069,-39.41804,-14.07484,-13.24335,0.66677,-0.2994852,0.7147353,-18.13008,24.76772,-37.37575,1007.62
17.559504986,-50.10281,-17.6204,-18.49701,0.6497662,-0.3022932,0.6815659,-18.13008,24.76772,-37.37575,1007.62
17.592280865,-82.21925,-24.41606,-26.92729,0.5372445,-0.360806,0.6669988,-18.14287,25.50253,-36.9521,1007.62
17.625057220,-69.91933,-20.22048,-37.25134,0.674043,-0.5556819,0.4238803,-18.88851,26.62052,-35.29006,1007.62
17.657833099,-60.2285,-19.15681,-54.17299,0.5427669,-0.4549134,0.574706,-18.88851,26.62052,-35.29006,1007.62
17.690609455,-40.47409,-36.70734,-72.13316,0.5015574,-0.4603186,0.6874506,-20.3836,28.89515,-33.58307,1007.62
17.725906372,-24.81965,-50.00319,-89.78789,0.6193875,-0.420466,0.5335566,-21.84991,29.65638,-31.47925,1007.62
17.758682251,-24.32269,-42.43933,-109.0309,0.663107,-0.4486085,0.4261518,-21.84991,29.65638,-31.47925,1007.618
17.791458130,-17.24092,-35.70276,-130.4732,0.627551,-0.4091991,0.3929627,-25.17761,29.32371,-29.72877,1007.618
17.824234486,13.69523,-20.0432,-149.8995,0.7191057,-0.3264708,0.3430406,-28.42592,27.88486,-28.89356,1007.618
17.859531403,1.892279,-13.12936,-167.3709,0.5939456,-0.1534609,0.4393491,-31.28187,24.92749,-27.97278,1007.621
17.892307281,-9.662186,-3.379064,-175.1293,0.6781796,-0.06834662,0.3210874,-31.28187,24.92749,-27.97278,1007.621
17.925083637,-0.5925519,2.88476,-193.8225,0.7898433,0.1242516,0.2180022,-34.84078,20.56892,-27.46421,1007.621
17.957859516,-31.65294,10.50772,-210.2554,0.7197644,0.1883925,0.2108513,-34.84078,20.56892,-27.46421,1007.621
17.990634918,2.327125,23.62629,-218.8079,0.8446755,0.31101,0.04381904,-37.36025,15.7827,-26.95028,1007.619
18.025932789,37.92233,29.83102,-220.5795,0.6526591,0.618674,0.1136082,-38.72335,10.67218,-27.73841,1007.621
18.058708668,43.38896,33.1993,-211.1107,0.5744372,0.8420782,0.1163452,-38.96533,4.046504,-28.06895,1007.621
18.091484547,8.911926,42.83141,-192.2342,0.4853352,0.9597764,0.1996547,-38.96533,4.046504,-28.06895,1007.621
18.124260902,-26.7454,58.66825,-173.3577,0.3889045,0.8893205,0.2693057,-38.09592,-3.614362,-28.38468,1007.621
18.159557819,-25.31662,67.05942,-156.6804,0.2844375,0.9383758,0.3753792,-35.46043,-8.435873,-29.5557,1007.622
18.192333698,-51.59371,61.03196,-144.0349,0.2012097,0.8265415,0.4320644,-35.46043,-8.435873,-29.5557,1007.627
18.225110054,-8.41977,49.98162,-137.4373,0.1612523,0.9098811,0.5581504,-33.15058,-12.1094,-31.24174,1007.625
18.257885933,-26.18631,45.3724,-116.6671,0.1997181,1.096723,0.6959284,-29.45779,-15.0506,-32.44378,1007.625
18.290661335,-48.11494,50.63165,-88.74937,0.1569132,1.171475,0.9211945,-29.45779,-15.0506,-32.44378,1007.625
18.325958729,-59.91789,49.62707,-48.98043,0.1120033,1.287607,1.006327,-27.24773,-16.52548,-33.2939,1007.625
18.358735085,-103.4646,41.70865,-12.51028,0.1406102,1.282142,0.8864083,-25.42339,-16.9172,-34.9688,1007.627
18.391510964,-105.763,16.53517,20.59996,0.1252933,0.5586367,0.7989646,-25.42339,-16.9172,-34.9688,1007.627
18.424287319,-4.692523,10.27135,16.99571,0.04550271,0.3837747,0.612649,-23.64117,-15.13504,-37.61047,1007.627
18.459584236,20.09367,7.434896,3.067416,0.03853083,0.4658598,0.6587526,-23.35281,-11.13815,-38.48204,1007.627
18.492360115,10.3407,6.548506,-3.591286,0.05488549,0.7595718,0.7829438,-23.35281,-11.13815,-38.48204,1007.627
18.525136471,4.936197,8.61675,6.977113,0.04728167,0.9085664,0.8563856,-22.56929,-10.76371,-37.61856,1007.631
18.557912350,14.8134,6.075765,6.060778,0.09255319,0.6253354,0.6944862,-22.55722,-11.50448,-38.47733,1007.628
18.590687752,16.3043,11.39411,14.24671,0.05196755,0.7372478,0.6578303,-22.55722,-11.50448,-38.47733,1007.631
18.625985145,13.50886,11.86685,9.66503,0.04585161,0.6594483,0.6834742,-22.56398,-11.14004,-38.48306,1007.631
18.658761501,25.24969,5.425745,8.321072,0.05815723,0.8010492,0.7202965,-22.54224,-12.22146,-37.59564,1007.633
18.691537380,20.46639,2.175648,9.481763,0.1039676,0.7196847,0.661103,-22.54224,-12.22146,-37.59564,1007.633
18.724313736,21.52245,5.248467,6.366223,0.1009987,0.7369757,0.6297955,-21.82085,-11.85877,-37.60231,1007.635
18.759610653,16.18006,6.607599,8.137804,0.09021343,0.7837718,0.6485236,-21.8067,-12.58255,-37.2179,1007.635
18.792386532,17.60884,7.612174,8.993051,-0.02725147,0.7688082,0.6690419,-21.8067,-12.58255,-37.2179,1007.635
18.825162411,25.37393,1.939277,9.176317,0.06119262,0.7448913,0.6953431,-22.16464,-12.95121,-37.58465,1007.635
18.857938766,29.84663,1.34835,8.015626,0.07286036,0.7295492,0.6462397,-21.78569,-13.66992,-36.76559,1007.635
18.890714645,28.97694,2.471111,3.189595,0.06776462,0.826273,0.6239634,-21.78569,-13.66992,-36.76559,1007.635
18.926011562,25.00121,0.8756089,4.655731,0.0770259,0.802658,0.578729,-22.14228,-14.02754,-36.32428,1007.635
18.958787918,14.99976,1.525628,2.334348,0.07116492,0.817734,0.5825711,-21.76614,-14.76917,-37.18352,1007.635
18.991563797,13.19826,2.412019,-2.002972,0.08051069,0.7691753,0.5922493,-22.11524,-15.48528,-36.30136,1007.635
19.024339676,15.124,6.075765,-3.224752,0.108614,0.797775,0.6089872,-22.11524,-15.48528,-36.30136,1007.635
19.059637070,25.5603,0.8165162,-5.973758,0.05522097,0.7890465,0.6086456,-22.10172,-16.21416,-36.28991,1007.635
19.092412949,34.50569,3.652965,-10.43326,0.104196,0.8035542,0.5348593,-21.36535,-16.56845,-35.41489,1007.635
19.125188828,32.33146,13.99418,-13.42662,0.09532844,0.8595797,0.5477926,-21.36535,-16.56845,-35.41489,1007.638
19.157965183,22.8891,6.607599,-17.15305,-0.01655767,0.953429,0.5907577,-21.35182,-17.29733,-35.40343,1007.638
19.190741062,-3.387987,5.898487,-17.9472,0.07506281,0.794737,0.4925818,-21.33081,-18.3847,-34.95113,1007.636
19.226037979,29.4739,5.484838,-22.52888,0.01228494,0.8521404,0.4883119,-21.33081,-18.3847,-34.95113,1007.636
19.258814335,13.44674,5.425745,-25.7666,0.04164436,0.9801577,0.5823963,-20.9607,-18.75595,-35.38099,1007.636
19.291590214,-4.44404,11.39411,-21.3071,0.07538009,0.8729298,0.5304908,-20.2023,-20.2592,-34.11487,1007.636
19.324366093,4.252869,14.28965,-19.47443,-0.02663717,0.9011317,0.5764197,-20.2023,-20.2592,-34.11487,1007.636
19.357142449,3.258936,18.36704,-13.36553,0.06125191,0.8993595,0.5661052,-19.83957,-20.27111,-34.9234,1007.636
19.392439365,21.58457,24.68996,-8.783854,0.004978167,0.8683859,0.5220001,-17.9989,-21.36878,-34.90857,1007.636
19.425215244,5.93013,21.43986,-3.774554,0.01545485,0.9637565,0.5665981,-17.9989,-21.36878,-34.90857,1007.636
19.457991600,2.948332,26.87639,-5.85158,0.04982963,0.7821531,0.4642603,-17.27074,-21.37053,-34.9095,1007.638
19.490767479,28.60421,25.04452,-10.49435,0.0544013,0.909085,0.5020857,-16.1575,-22.46051,-34.45861,1007.638
19.526064396,15.74521,30.95378,-15.44256,0.03109842,0.8917826,0.4232237,-16.1575,-22.46051,-34.45861,1007.642
19.558840752,13.13614,34.49934,-20.08532,0.02811144,0.9178836,0.3981607,-15.07276,-22.10464,-34.90086,1007.644
19.591616630,-15.00457,40.34952,-20.69621,-0.005638539,1.029434,0.4413951,-13.60158,-22.82596,-34.08322,1007.644
19.624392509,-40.66045,48.14975,-20.32968,-0.05537273,0.9081141,0.4243669,-13.60158,-22.82596,-34.08322,1007.644
19.657168865,-41.65438,54.2363,-15.80909,-0.05983413,0.9541327,0.4637798,-11.77505,-23.19986,-34.45279,1007.644
19.692465782,-43.51801,58.37279,-12.63246,-0.1270886,0.8603317,0.503071,-9.180081,-22.48318,-34.90273,1007.642
19.725241661,-37.49229,59.02281,-8.722764,-0.1542807,0.8686889,0.5469268,-9.180081,-22.48318,-34.90273,1007.644
19.758018017,-35.69079,51.51804,-2.919307,-0.1950774,0.8783101,0.5787789,-6.667525,-20.68494,-36.24,1007.642
19.790793896,-52.774,44.07236,1.112568,-0.1960732,0.8996392,0.6355498,-4.13178,-19.95623,-35.81964,1007.642
19.826090813,-65.81937,47.02699,0.2573216,-0.167172,0.7603709,0.4643264,-4.13178,-19.95623,-35.81964,1007.644
19.858866692,-77.43595,60.79559,-6.034847,-0.1645507,0.679061,0.4649241,-2.334257,-18.81843,-36.71036,1007.644
19.891643047,-65.69512,67.1776,-13.91533,-0.221844,0.689249,0.5281031,0.1851639,-17.38377,-37.97974,1007.644
19.924418926,-36.49836,73.91417,-18.13047,-0.357223,0.845665,0.4916049,0.1851639,-17.38377,-37.97974,1007.644
19.957195282,-67.06178,79.88253,-25.64442,-0.4432365,0.6534636,0.4107485,2.376218,-14.47366,-38.02848,1007.646
19.992492199,-74.39204,80.9462,-30.7759,-0.5016995,0.5529624,0.5265655,5.625869,-13.02376,-38.05563,1007.646
20.025268078,-53.6437,82.00986,-35.47975,-0.613844,0.5508501,0.5677503,7.393516,-10.10159,-37.29575,1007.646
20.058043957,-25.87571,80.05981,-40.97776,-0.6364974,0.4669161,0.5015026,7.393516,-10.10159,-37.29575,1007.644
20.090820313,26.42999,85.14178,-57.77724,-0.5802402,0.2753846,0.4159755,11.37277,-8.641555,-36.45362,1007.644
20.126117229,108.4915,67.41397,-71.82772,-0.7270818,0.369533,0.4739453,14.30583,-6.389432,-35.62257,1007.644
20.158893108,112.2188,35.44483,-78.48642,-0.7362946,0.5817988,0.5429633,14.30583,-6.389432,-35.62257,1007.644
20.191669464,64.82063,33.55386,-76.77592,-0.8067736,0.8033412,0.4787755,16.53021,-8.236834,-32.61216,1007.644
20.224445343,3.445299,29.83102,-74.6989,-0.8989165,0.7179875,0.2918729,18.02178,-10.05062,-31.71517,1007.644
20.257220745,-71.22388,43.30415,-70.42267,-0.7689315,0.5869696,0.3451933,18.02178,-10.05062,-31.71517,1007.644
20.292518616,-63.45878,37.45398,-65.90208,-0.766571,0.4263325,0.4248545,19.45843,-8.955707,-31.36128,1007.644
20.358070374,-39.54228,30.77651,-62.4811,-0.7237478,0.4033972,0.5071003,20.87981,-7.076272,-31.39277,1007.644
20.390846729,-60.35274,41.94502,-56.73873,-0.7492129,0.4998321,0.5378225,21.90588,-3.422633,-30.58126,1007.644
20.426143646,-62.3406,53.58628,-46.53687,-0.9923417,0.2211856,0.4714285,23.32235,-1.233558,-30.18241,1007.646
20.458919525,-53.02249,44.78147,-38.83965,-0.8979627,0.1419284,0.4467747,23.32235,-1.233558,-30.18241,1007.646
20.491695881,-29.66508,42.06321,-42.4439,-0.8006513,0.03571312,0.3239567,24.05927,1.69788,-28.92393,1007.644
20.524471760,-14.75609,36.62668,-36.76262,-0.9725639,0.2743706,0.4616742,25.11301,3.898866,-27.71654,1007.644
20.557247639,-0.281948,34.79481,-19.04681,-0.9418118,0.4140233,0.476313,25.11301,3.898866,-27.71654,1007.644
20.658096790,-14.50761,26.64002,-10.86088,-0.9047521,0.1101779,0.3014674,26.5244,6.536045,-25.64609,1007.642
20.690873146,-23.94996,41.64956,-15.93127,-1.056337,0.1499781,0.3239096,26.87641,7.275934,-24.78779,1007.641
20.726170063,-21.34089,31.6629,-12.57137,-0.9610835,-0.101003,0.2571526,26.85685,8.375187,-24.36987,1007.642
20.758945942,-8.35765,38.28128,-23.44522,-0.7593676,0.2251198,0.2667726,26.85685,8.375187,-24.36987,1007.642
20.791722298,-15.9985,35.03118,-23.07868,-1.245836,0.2070154,0.3493039,27.57501,9.131187,-22.26887,1007.642
20.824498177,-34.94534,41.76774,-21.97908,-0.9313112,0.07033206,0.4166359,28.29037,9.86426,-21.84616,1007.642
20.857274055,-29.66508,42.00411,-32.9751,-1.026811,-0.04723238,0.1542161,28.29037,9.86426,-21.84616,1007.642
20.892571449,-42.27559,55.0636,-37.92331,-1.156961,0.1691107,0.1845245,27.90881,10.98137,-20.18459,1007.642
20.925347328,-55.56944,53.70446,-36.57935,-0.9564511,-0.004440788,0.2699929,28.26155,11.7272,-18.89119,1007.642
20.958123207,-38.05138,55.53634,-50.87418,-0.8708708,0.1213883,0.1218222,28.60211,13.21295,-16.80118,1007.642
20.990899563,-40.97106,54.76814,-56.00566,-1.022992,0.1927191,0.1966866,28.60211,13.21295,-16.80118,1007.641
21.026196480,-34.63474,45.3133,-56.12784,-0.9640216,-0.1196015,0.1074841,29.30009,15.06311,-14.65521,1007.641
21.058972359,-56.81186,47.55883,-68.59,-1.166859,-0.1844193,0.06522173,28.53981,16.97071,-13.00558,1007.641
21.091748714,-53.51945,37.09942,-61.99239,-1.200967,-0.1395769,0.04116696,28.53981,16.97071,-13.00558,1007.641
21.124524593,-47.9907,25.75363,-52.76794,-1.111229,-0.2796689,0.1687261,27.78065,18.81756,-11.35501,1007.642
21.157300472,-3.387987,11.15773,-46.59795,-1.108899,-0.2432891,0.1445977,27.02835,20.30083,-9.63654,1007.642
21.192597866,-4.071315,8.971306,-40.48905,-1.169838,0.07264035,0.194809,27.02835,20.30083,-9.63654,1007.644
21.225373745,12.76341,-0.3062448,-23.32304,-1.19727,-0.01467947,0.2777999,25.54708,21.77905,-8.414405,1007.642
21.258149624,129.5505,-26.95704,40.57607,-1.12247,0.1878219,0.3124567,25.16948,22.5088,-8.425395,1007.642
21.290925980,177.6941,-32.39357,72.76998,-0.9623132,-0.006052725,0.1852895,25.16948,22.5088,-8.425395,1007.642
21.326222897,332.0021,-27.01614,115.4712,-0.8185455,-0.1517493,-0.488257,25.18623,21.38661,-10.5216,1007.644
21.358998776,380.6426,-7.692831,141.7395,-0.581637,0.7263164,-0.2927839,25.59058,18.77695,-14.70876,1007.644
21.391775131,64.07518,35.85847,120.3583,-0.7872357,0.710839,0.2502217,25.59058,18.77695,-14.70876,1007.642
21.424551010,-196.0245,15.4715,84.07145,-0.7997596,-0.2034319,-0.02852313,26.0853,11.37989,-18.01241,1007.642
21.457326889,-52.71188,12.98961,34.16173,-0.8355739,-1.098436,-0.1700537,25.79767,7.388937,-16.70574,1007.642
21.492624283,-163.6596,29.83102,-73.17168,-0.9584011,-0.4298687,0.1676273,25.79767,7.388937,-16.70574,1007.641
21.525400162,-243.9818,86.91456,-180.1385,-1.306256,-1.81158,0.02901448,25.78029,8.506023,-14.98248,1007.639
21.558176041,-19.16666,40.99954,-159.7348,-1.990198,0.1363527,0.04743663,23.1152,11.83297,-12.04706,1007.637
21.590952396,-291.939,-1.488098,-160.2235,-1.183851,0.009942158,0.02020245,23.1152,11.83297,-12.04706,1007.635
21.626249313,-285.4163,10.68499,-177.9393,-1.063211,-0.08615554,-0.006413747,20.83848,17.02993,-10.01202,1007.635
21.659025192,-329.5842,-27.48888,-135.849,-1.606731,0.1869972,0.005535027,18.57536,21.84842,-4.551553,1007.634
21.691801548,-62.89969,-63.88997,15.4074,-1.310466,-0.4903376,-0.1905424,18.57536,21.84842,-4.551553,1007.634
21.724577427,296.7175,-72.22203,121.2136,-1.189812,-0.3897295,-0.2256383,14.85739,26.68229,1.781014,1007.632
21.757353306,325.2309,-54.96698,150.1698,-0.8413677,0.1662845,0.09906054,15.56849,27.38055,-0.344785,1007.63
21.792650700,258.0162,2.057462,151.7581,-0.7823153,0.2320452,0.02950528,15.56849,27.38055,-0.344785,1007.63
21.825426578,139.9247,20.61257,150.0476,-0.977981,0.2281716,0.05789419,19.20991,26.53765,-8.045716,1007.634
21.858202457,31.95874,27.70369,138.3185,-1.087479,0.3042368,-0.07818612,23.26783,23.18444,-12.66123,1007.633
21.890978813,-155.2733,21.26258,101.1153,-0.96378,-0.04461902,-0.03607525,23.26783,23.18444,-12.66123,1007.629
21.926275730,-126.0765,33.14021,83.70492,-0.9065579,-0.226134,-0.08311085,27.0422,19.15487,-13.4732,1007.627
21.959051609,-126.0765,29.2401,75.4579,-1.039187,0.01716273,-0.02588092,30.3374,18.4589,-10.48234,1007.627
21.991827965,-111.1675,21.85351,73.99177,-0.8374857,-0.05394546,0.01177543,32.5539,17.03668,-7.47862,1007.627
22.024603844,-34.38625,14.6442,76.5575,-0.8172501,0.006381619,-0.02205881,32.5539,17.03668,-7.47862,1007.626
22.057380199,2.078641,8.971306,72.46454,-0.7383853,0.1329459,0.01366551,34.76871,15.53078,-6.152228,1007.624
22.092677116,-9.475823,17.06701,60.00238,-0.7760574,0.2474082,-0.01000438,36.68566,13.72108,-4.88283,1007.624
22.125452995,-28.60902,17.36247,45.89082,-0.8834673,0.2914298,0.00606897,36.68566,13.72108,-4.88283,1007.622
22.158228874,-30.0378,11.21683,37.33836,-0.9213556,0.2949363,-0.004436409,38.18327,11.53691,-4.415217,1007.622
22.191005230,-39.915,5.307559,26.09798,-0.8688915,0.2947212,0.04165021,39.31752,9.359554,-3.512024,1007.62
22.226302147,-43.45589,7.139433,12.41404,-0.8368102,0.2839008,0.05795672,39.31752,9.359554,-3.512024,1007.616
22.259078026,-41.77863,6.962155,3.128505,-0.8315582,0.3249795,0.07569274,39.69658,8.641693,-2.63081,1007.616
22.291854382,-43.14528,9.325862,-7.012271,-0.8101873,0.3232297,0.07853285,40.43887,7.91617,-2.247337,1007.615
22.324630261,-41.59226,11.03955,-14.83167,-0.8171431,0.388391,0.07219344,40.43887,7.91617,-2.247337,1007.615
22.357406616,-52.52552,11.68957,-23.62848,-0.8021002,0.3974572,0.09717491,40.80367,7.92124,-1.812695,1007.615
22.392704010,-53.45733,11.51229,-25.27789,-0.8221332,0.4473678,0.08463179,40.79234,8.667948,-0.51882,1007.616
22.425479412,-65.3224,11.57138,-26.43858,-0.7904621,0.4028682,0.09088144,40.79234,8.667948,-0.51882,1007.616
22.458255291,-55.7558,11.68957,-29.37085,-0.7533321,0.3072152,0.08853073,41.50842,9.406963,0.3390036,1007.618
22.491031647,-33.14384,12.10322,-31.81441,-0.7782223,0.3616091,0.09620957,40.76133,10.51306,1.130818,1007.618
22.523807526,-29.04387,11.74866,-34.56342,-0.7976486,0.3674521,0.1193522,40.76133,10.51306,1.130818,1007.618
22.559104442,-16.43335,13.0487,-38.83965,-0.8151758,0.3872844,0.120808,41.10585,11.61144,1.54827,1007.618
22.591880798,-17.4894,10.74409,-41.03885,-0.7651892,0.4069836,0.1620568,41.09451,12.35815,2.842145,1007.618
22.624656677,-18.23485,12.98961,-41.95519,-0.7258795,0.4170791,0.1657993,41.09451,12.35815,2.842145,1007.618
22.657433033,-33.88929,5.130281,-44.52093,-0.6136059,0.3767616,0.1862923,41.44569,13.09124,3.203168,1007.618
22.692730427,-55.32096,7.434896,-45.68162,-0.5295976,0.3805722,0.2130436,41.0634,14.20241,4.429624,1007.618
22.725505829,-74.889,12.98961,-48.98043,-0.3718182,0.1768549,0.1441416,41.0634,14.20241,4.429624,1007.618
22.758282185,-32.14991,12.69415,-55.08932,-0.2310597,-0.01327036,0.0892191,40.31569,15.30341,4.848485,1007.616
22.791058063,-25.99995,12.16231,-62.96981,-0.1329271,0.1847795,0.1560785,39.93227,16.47532,6.073987,1007.616
22.823833942,-45.94072,12.2805,-74.08801,-0.0708133,-0.007749279,0.1302278,39.93227,16.47532,6.073987,1007.612
22.859130859,-42.52407,29.00373,-89.29918,-0.05770165,0.1706726,-0.001965317,39.16574,18.68151,7.345881,1007.612
22.891907215,-93.58736,32.54929,-88.81046,-0.2823691,0.1054833,-0.001334189,37.68987,19.78426,7.765682,1007.609
22.924683094,-56.87397,9.975882,-87.16106,0.2401936,0.2809871,0.02508084,37.68987,19.78426,7.765682,1007.611
22.957459450,-652.6743,437.1569,-246.8478,-2.04564,-1.342417,-1.443387,36.20401,21.64475,10.28742,1007.603
22.992756844,-46.31344,267.9154,-67.24604,-4.316084,-2.591161,-1.300857,34.29765,23.54107,15.35822,1007.6
23.025532246,-87.748,505.0544,-277.6366,-2.202808,0.2406982,-0.3103495,24.12883,23.35306,26.50354,1007.6
23.058308125,66.00092,455.5938,-239.2116,-0.3635263,-0.3286549,-1.331453,24.12883,23.35306,26.50354,1007.609
23.091084480,111.4112,161.9623,-178.8557,2.107233,-0.2155911,0.6115505,9.804166,24.19183,32.04269,1007.61
23.123860359,302.122,-45.0985,-148.7388,-1.164929,-1.255992,-2.330831,-7.405591,26.02546,29.86065,1007.616
23.159157276,1166.408,-122.569,-36.57935,-1.373594,0.1322735,-2.261668,-7.405591,26.02546,29.86065,1007.619
23.191933632,-813.6913,29.77193,7.83236,1.235072,1.501217,-0.1629982,-11.12755,29.21777,18.31344,1007.622
23.224709511,-537.7509,100.9786,10.27592,-0.4047696,-1.463451,-0.7900379,-9.902248,41.66587,18.11579,1007.622
23.257485867,297.0902,11.92594,76.67968,-0.09721527,-0.4396416,-0.3821903,-9.902248,41.66587,18.11579,1007.626
23.292783260,-31.21809,37.33579,31.71817,-0.1407452,-0.2160846,0.09123601,-10.05345,31.16555,27.66936,1007.629
23.325558662,-4.506161,87.80095,-57.04417,-0.1913303,-1.543742,-0.6161702,-8.670458,34.75973,24.19145,1007.635
23.358334541,70.53574,94.41933,-95.71352,-0.01479447,-0.5570797,-0.2098812,-8.670458,34.75973,24.19145,1007.638
23.391110897,-227.5197,69.6004,-61.9313,0.2818112,-0.5643905,-0.4271865,-10.12208,34.3818,22.95588,1007.638
23.423886776,-298.5859,8.262194,-9.822367,0.02742707,-0.9283627,-1.124009,-16.01403,34.76629,23.39286,1007.643
23.459183693,-168.8777,-6.097328,19.43927,0.008104607,-0.8315109,-1.461062,-16.01403,34.76629,23.39286,1007.647
23.491960526,-138.9976,30.06739,51.14447,0.3134236,-0.4092925,-0.5738292,-17.70028,28.2426,30.27461,1007.65
23.524735927,-107.0676,6.607599,34.03955,-0.107064,-0.2610609,-0.8142176,-17.62768,24.63899,33.31554,1007.647
23.557511806,-22.89391,-1.429006,40.4539,-0.0484817,-0.2501278,-1.133516,-17.62768,24.63899,33.31554,1007.647
23.592809677,4.190748,-18.74316,34.52826,0.05401631,-0.4905411,-1.23015,-17.18632,20.65308,35.11855,1007.651
23.625585079,23.38607,-25.77519,19.98907,-0.0835083,-0.6176337,-1.061156,-16.80945,19.91739,34.69442,1007.653
23.658360958,12.94978,-7.751923,-4.263266,-0.1207528,-0.5156949,-1.275427,-16.80945,19.91739,34.69442,1007.654
23.691137314,11.76948,-10.76565,-32.11986,-0.5965292,-0.4623308,-0.8036074,-15.36594,20.64872,35.1162,1007.656
23.723913193,-26.68328,-7.811016,-48.5528,-0.5044615,-0.1276237,-0.5482457,-15.00935,21.00634,34.67488,1007.656
23.759210110,-77.37383,4.775725,-11.59395,-0.3208772,-0.1871033,-0.7777197,-15.00935,21.00634,34.67488,1007.658
23.791986942,-70.78903,15.76696,8.137804,-0.2960004,-0.01138044,-0.6817712,-14.63175,20.27659,34.68587,1007.661
23.824762344,-40.03925,27.34913,7.343647,-0.3447053,-0.1979597,-0.90954,-16.05218,18.47488,35.95958,1007.663
23.857538223,8.41496,27.46732,-1.330993,-0.1756872,-0.2550218,-1.124061,-16.05218,18.47488,35.95958,1007.665
23.892836094,36.18295,7.08034,0.5016777,-0.175546,-0.2861478,-0.9776803,-16.01652,16.5979,36.4243,1007.668
23.925611973,42.76775,1.525628,-0.1703015,-0.1385413,-0.3130412,-0.8973401,-17.82411,15.86744,36.00299,1007.668
23.958387375,27.92089,3.830243,-0.04812346,-0.1963787,-0.2972089,-0.9323663,-17.48955,17.37402,35.17059,1007.668
23.991163731,10.15434,9.384954,-1.697527,-0.1520391,-0.3742591,-0.9997458,-17.48955,17.37402,35.17059,1007.67
24.023939610,-9.351582,5.071189,-1.269904,-0.1691192,-0.3287559,-0.949231,-17.51659,18.83177,35.14766,1007.672
24.059236527,-14.13488,1.11198,0.1962326,-0.1623381,-0.3203762,-0.943002,-17.13972,18.09608,34.72354,1007.672
24.092013359,-8.481891,2.530204,0.3794996,-0.1580119,-0.299811,-0.9324533,-17.13972,18.09608,34.72354,1007.672
24.124788761,0.5256221,-0.1880594,0.5627667,-0.1560609,-0.297132,-0.8997294,-17.13223,17.73759,35.16438,1007.674
24.157564640,3.507419,-0.1880594,0.01296555,-0.1590132,-0.290189,-0.9483503,-17.50307,18.1029,35.15912,1007.674
24.192862511,16.73915,-5.210938,-0.3535686,-0.1657764,-0.3109185,-0.9795916,-17.50307,18.1029,35.15912,1007.675
24.225638390,26.11938,-7.515553,-3.285841,-0.1943852,-0.3191223,-0.9342633,-17.49028,17.36808,34.73547,1007.677
24.258413792,43.57532,-17.08857,-18.06938,-0.2462783,-0.3413046,-0.9100388,-17.88212,18.82076,34.27791,1007.677
24.291190147,37.61172,-15.37488,-15.99236,-0.1650936,-0.3745022,-0.8788928,-17.88212,18.82076,34.27791,1007.677
24.323966026,57.8631,-16.73401,-15.07602,-0.1513231,-0.4757173,-1.0227,-17.15324,18.82495,34.71208,1007.681
24.359263420,115.2006,-29.61621,-7.806428,-0.141177,-0.4309628,-0.9024512,-17.18174,20.27081,33.81894,1007.681
24.392039776,169.1835,-38.77558,-13.12117,-0.2779154,-0.7639974,-1.14375,-17.18174,20.27081,33.81894,1007.681
24.424815178,331.0703,-77.304,-11.77722,-0.1773989,-0.7161142,-0.8923082,-16.13892,22.80227,32.53424,1007.678
24.457591057,246.3375,-67.25825,-9.944545,-0.2759742,-0.6109245,-0.3550332,-15.50051,27.10329,27.30536,1007.678
24.492888928,205.0893,-34.99365,-3.896731,-0.2969952,-1.002238,-0.5714877,-15.50051,27.10329,27.30536,1007.68
24.525664806,215.712,-37.12099,-7.012271,-0.245728,-0.8786961,-0.376844,-14.19863,34.72117,20.40689,1007.68
24.558440208,164.7729,-32.39357,-3.652375,-0.302308,-0.7245255,-0.130485,-13.19074,38.64584,14.3752,1007.682
24.591217041,78.05235,-22.76146,-7.562072,-0.2955465,-0.9093955,-0.1090425,-13.19074,38.64584,14.3752,1007.682
24.623992443,81.40688,-17.91586,-11.65504,-0.2654155,-1.141592,-0.1978159,-12.87094,40.45147,8.750833,1007.682
24.659289837,84.57504,-34.46181,-22.52888,-0.2758894,-0.9651658,0.11194,-12.53744,41.87947,6.614043,1007.682
24.692066193,94.57648,-48.99862,-26.43858,-0.346693,-1.020937,0.02121465,-12.53744,41.87947,6.614043,1007.682
24.724841595,101.1613,-55.02607,-25.27789,-0.2307632,-0.9460878,0.1397232,-13.2841,42.56933,3.6199,1007.682
24.757617474,101.9688,-78.84042,-19.77987,-0.4526786,-1.122866,0.2690396,-13.28825,42.53537,1.133548,1007.682
24.792915344,227.8255,-109.3322,-6.523559,-0.199095,-1.415419,0.05707989,-13.28825,42.53537,1.133548,1007.68
24.825691223,290.5675,-111.6959,22.0661,-0.370591,-0.6984934,0.4034679,-14.75703,42.85659,-2.289037,1007.68
24.858466625,265.1601,-138.4649,52.61061,-0.2911662,-0.8061386,0.4467643,-14.75628,42.02328,-9.923112,1007.68
24.891243458,302.122,-100.1138,111.867,-0.2221492,-0.3792309,0.6813431,-14.75628,42.02328,-9.923112,1007.68
24.924018860,225.7756,-84.98605,131.5376,-0.2664488,-0.3520719,0.5779145,-15.46412,40.09245,-17.97417,1007.68
24.959316254,187.447,13.46235,199.713,-0.3142415,0.1478762,0.6003796,-13.24407,37.37012,-25.64361,1007.678
24.992092609,135.5762,-25.7161,210.1592,-0.380541,-0.3851009,0.4477858,-10.20564,33.27862,-31.11656,1007.678
25.024868488,202.1697,60.26375,259.0915,-0.4677114,0.06427589,0.108918,-10.20564,33.27862,-31.11656,1007.676
25.057643890,235.777,124.5566,302.2204,-0.7314376,0.3570899,0.4407604,-5.074321,31.02799,-34.88044,1007.676
25.092941761,58.48431,156.1121,290.3691,-0.719277,0.2862972,0.1212141,3.097478,25.05238,-39.52229,1007.675
25.125717640,67.67818,218.7503,293.3625,-1.229898,0.4436974,0.3272481,3.097478,25.05238,-39.52229,1007.675
25.158493042,-101.2282,229.2097,258.4195,-1.54498,0.4534984,0.5046403,12.76074,17.75184,-38.61192,1007.675
25.191269875,-199.7518,210.891,212.4806,-1.651821,-0.1062583,0.7521946,22.69982,12.25364,-34.68385,1007.673
25.224045277,-401.2716,100.9195,150.7807,-1.839021,-0.7734803,0.9808471,22.69982,12.25364,-34.68385,1007.673
25.259342671,-251.9332,46.1406,86.27066,-0.7995617,-0.4023612,0.4305139,31.53754,10.87415,-27.39971,1007.673
25.292119026,-296.7844,93.11929,70.20425,-0.6142409,-0.3523974,0.3188045,35.11921,14.57942,-22.36469,1007.673
25.324894905,-122.6599,65.40482,45.64646,-0.836061,-1.282271,0.989825,35.11921,14.57942,-22.36469,1007.673
25.357670307,20.59063,25.57635,40.02627,-0.3355745,-0.2760802,0.5928861,36.61124,16.54022,-16.42901,1007.675
25.390446663,-35.06958,66.94123,41.30914,-0.6328269,0.1908653,0.7218923,38.79996,16.5698,-13.88331,1007.675
25.425744057,-11.96065,76.45515,56.94793,-0.8147904,-0.1047035,0.5297434,38.79996,16.5698,-13.88331,1007.681
25.458519936,-23.88784,86.02817,49.49507,-0.9982001,0.05548386,0.6031039,39.55919,15.07334,-12.11993,1007.681
25.491296291,-10.71824,95.95574,39.53756,-0.8260342,0.1091859,0.4144022,41.03535,14.39277,-8.318663,1007.681
25.524071693,15.62097,86.61909,34.65044,-0.9985303,0.1291096,0.2650778,41.03535,14.39277,-8.318663,1007.681
25.559369087,-12.0849,63.27748,32.26797,-1.05159,0.1841723,0.2627138,42.54398,11.87898,-5.296809,1007.681
25.592145443,2.76197,37.09942,40.27063,-0.9192608,0.07813513,0.2635225,42.93259,10.81961,-2.731578,1007.681
25.624921322,-12.14702,19.84436,62.87357,-0.9143017,0.0373625,0.2775317,42.93259,10.81961,-2.731578,1007.681
25.657696724,-2.456175,8.203101,63.54555,-0.9745428,0.2515492,0.2638736,43.3259,9.378824,-1.403793,1007.682
25.690473556,26.1815,6.016672,68.92138,-0.9842888,0.2832572,0.3529009,43.72523,7.567654,-0.505389,1007.682
25.725770473,-3.760711,3.830243,61.52961,-0.859025,0.2719777,0.261162,43.72523,7.567654,-0.505389,1007.681
25.758546352,10.89979,3.121131,59.81911,-0.9869999,0.4071091,0.3767887,43.40849,5.017468,-0.4648092,1007.681
25.791322708,3.693782,-0.0107814,57.681,-0.8801771,0.3948321,0.3038682,44.54918,2.403052,-0.4251535,1007.681
25.824098110,-20.7818,-2.669952,57.80318,-0.8474569,0.3156948,0.3005404,44.54918,2.403052,-0.4251535,1007.682
25.859395504,9.533134,-1.07445,53.95457,-0.8658794,0.5129815,0.3277243,44.58298,0.5808673,-0.3965037,1007.682
25.892171860,-15.62578,-2.079025,48.33438,-0.8762945,0.402411,0.3385056,44.26623,-1.969319,-0.3559239,1007.681
25.924947739,7.234666,-1.547191,37.52162,-0.8045341,0.4175508,0.1881278,44.26623,-1.969319,-0.3559239,1007.679
25.957723141,-33.76505,-4.797289,29.70223,-0.7532924,0.3280455,0.282488,44.3068,-4.155941,-0.3215439,1007.679
25.990499973,39.10262,0.04831128,20.47779,-0.8760909,0.7177345,0.2980769,43.96301,-5.24838,-0.303884,1007.679
26.025796890,-2.518296,4.893911,16.01829,-0.817132,0.4547462,0.4393724,44.3534,-6.712944,-0.7165453,1007.679
26.058572769,11.58312,12.45777,15.34631,-0.87229,0.5548332,0.3305646,44.3534,-6.712944,-0.7165453,1007.679
26.091349125,11.58312,5.366652,3.861574,-0.8019914,0.5936246,0.2913491,44.00542,-7.489797,0.1665628,1007.679
26.124125004,13.50886,6.548506,1.356924,-0.7168134,0.5136679,0.3172611,43.28403,-7.852489,0.1732326,1007.679
26.159421921,12.01797,14.76239,-6.218114,-0.7744749,0.4504212,0.2563603,43.28403,-7.852489,0.1732326,1007.679
26.192198277,-2.02133,10.98046,-14.0986,-0.799784,0.4684731,0.2212537,44.38438,-8.208505,0.9856174,1007.681
26.224974155,-3.63647,11.27592,-20.39077,-0.8473193,0.4617934,0.2983944,43.65019,-7.836379,1.415939,1007.681
26.257749558,20.65275,4.421169,-28.27125,-0.7753199,0.8034218,0.2423521,43.65019,-7.836379,1.415939,1007.681
26.290526390,11.14827,8.734935,-31.44788,-1.004144,0.4601887,0.3262064,44.36296,-7.054454,0.9674723,1007.681
26.325823307,12.39069,15.4715,-35.60193,-0.8727712,0.5351956,0.2386553,43.98755,-6.306876,2.261817,1007.681
26.358599186,16.3043,7.553082,-40.97776,-0.9830261,0.5555127,0.281246,43.98755,-6.306876,2.261817,1007.681
26.391375542,5.12256,5.543931,-40.18361,-0.8748645,0.3833117,0.1816071,44.68866,-4.850873,2.237957,1007.681
26.424151421,-4.878885,5.425745,-40.7945,-1.017659,0.422447,0.3080036,44.6691,-3.751619,2.655879,1007.681
26.459448338,8.290719,-5.151845,-39.32836,-0.8589244,0.4119389,0.1468681,44.6691,-3.751619,2.655879,1007.681
26.492224693,-11.15308,-9.406518,-39.32836,-0.9252065,0.3287753,0.2439044,44.99188,-1.571813,2.185918,1007.682
26.525000572,4.563473,-18.74316,-32.66966,-0.9878905,0.3462258,0.2372877,44.9716,-0.4785018,2.168728,1007.684
26.557776451,-21.89998,-26.89795,-32.60857,-0.8332941,0.2746543,0.2649479,44.9716,-0.4785018,2.168728,1007.684
26.590552807,-9.910668,-28.84801,-18.98572,-0.9701545,0.2549028,0.3206588,44.93634,1.331794,1.269854,1007.684
26.625849724,-13.82428,-31.56627,-12.69355,-0.8780465,0.3099015,0.2746281,44.55063,2.41494,0.4450696,1007.686
26.658625603,-9.537944,-39.36651,1.723458,-0.9112735,0.2099038,0.3624655,44.55063,2.41494,0.4450696,1007.688
26.691401958,-19.78787,-39.13014,5.9386,-0.8970302,0.3383124,0.320841,44.899,3.12511,-0.872195,1007.688
26.724177837,-6.928871,-46.98946,15.22413,-0.8982913,0.2544781,0.3132686,44.90358,2.742841,-2.1718,1007.688
26.759474754,-15.25306,-48.82134,22.55481,-1.005657,0.2966706,0.4164711,44.90358,2.742841,-2.1718,1007.688
26.792251110,-9.351582,-59.69439,36.5442,-0.8907248,0.1387472,0.3307541,44.54346,2.35635,-3.843888,1007.689
26.825026989,-45.25739,-63.83088,36.36093,-0.8267787,0.4273883,0.4389552,44.54742,1.968987,-5.516446,1007.689
26.857802868,-5.437973,-80.90865,44.60795,-0.9017713,0.3380514,0.5692354,44.54742,1.968987,-5.516446,1007.691
26.890579224,-23.08027,-73.99481,40.88152,-0.6241531,0.3631349,0.4106524,43.84133,0.4722261,-8.476211,1007.691
26.925876141,-57.5573,-91.36806,45.89082,-0.8798804,0.3408883,0.6707465,43.48714,-0.2854943,-10.63984,1007.691
26.958652019,-3.325866,-86.81792,30.61856,-0.5062779,0.1758952,0.2378462,43.13702,-1.429729,-14.41387,1007.694
26.991428375,-148.9991,-95.85911,3.800485,-0.8229619,0.943594,0.8463628,43.13702,-1.429729,-14.41387,1007.694
27.024204254,-66.87542,-70.44925,-8.722764,-0.7581009,0.4444357,0.9870377,42.43696,-3.296871,-17.80301,1007.689
27.059501171,-192.9806,-101.4138,26.28124,-1.119952,0.8721611,0.876538,40.57705,-1.517025,-21.24804,1007.689
27.092277527,-167.9459,-87.7634,55.11526,-1.266944,0.1911611,0.8264073,40.57705,-1.517025,-21.24804,1007.689
27.125053406,1.022588,-66.37186,68.49375,-2.080752,-0.556048,0.1810695,38.72464,-0.09567165,-24.25224,1007.688
27.157829762,300.3205,-78.01311,151.6359,-1.580388,-0.5387239,-0.3106511,36.51022,1.343537,-26.01279,1007.692
27.190605640,310.2598,-65.84002,221.8883,-1.492626,0.9425308,0.7280937,36.51022,1.343537,-26.01279,1007.692
27.225902557,122.2202,-36.35278,201.118,-1.086719,-0.3425083,0.3478293,34.74275,-4.858422,-26.72101,1007.69
27.258678436,244.7224,-8.697406,130.7435,-0.9533944,0.1831986,0.4949801,30.61512,-17.63511,-24.40047,1007.689
27.291454792,147.0685,-16.43855,9.237407,-0.4338205,0.429232,0.7220238,30.61512,-17.63511,-24.40047,1007.689
27.324230671,181.6698,-5.506401,-124.3032,0.1054717,0.6158658,0.2275489,26.75513,-24.90537,-19.18272,1007.689
27.359527588,223.8498,-8.697406,-228.1545,-0.01633393,1.292307,0.7158818,25.36539,-28.13511,-15.71054,1007.689
27.392303944,163.6548,-26.30702,-236.707,-0.1344707,1.506763,0.4602357,25.36539,-28.13511,-15.71054,1007.689
27.425079823,80.97203,-0.1880594,-230.9646,0.4373057,1.583315,0.3456442,29.72119,-26.99368,-11.44441,1007.687
27.457856178,-14.63185,31.24925,-207.4453,0.1600516,1.171959,0.356549,35.09799,-22.24022,-9.41255,1007.687
27.490632057,11.76948,50.15891,-190.9513,0.07167172,1.17314,0.3524247,35.09799,-22.24022,-9.41255,1007.687
27.525928974,-20.22272,57.13184,-147.3948,-0.09503011,1.032496,0.3588083,39.40757,-15.6073,-7.844073,1007.685
27.558705330,-24.75753,57.30912,-125.525,-0.01669877,0.7759529,0.4230303,42.55871,-8.667077,-6.216725,1007.683
27.591481209,-103.0918,84.1963,-104.266,0.01405667,0.9060607,0.395805,42.55871,-8.667077,-6.216725,1007.688
27.624257088,-215.4062,112.6199,-89.36027,-0.2660692,0.6412935,0.1985474,43.54517,-2.749094,-4.197371,1007.688
27.659554005,-277.0921,95.60118,-63.70287,-0.5382716,0.4254921,0.5899026,44.19186,2.039487,-0.4189539,1007.686
27.692330360,-75.26173,59.31827,-55.76131,-0.6929287,0.2981166,0.4585684,44.19186,2.039487,-0.4189539,1007.686
27.725106239,41.89806,50.33618,-68.83436,-0.8029171,0.1074047,-0.009729661,44.14505,5.084502,4.569115,1007.684
27.757882595,73.7039,34.91299,-67.61257,-1.343546,0.3438518,-0.2369692,43.0293,6.573739,6.661004,1007.684
27.790658474,-50.72402,15.29422,-42.19954,-1.669233,0.5840893,0.2428775,43.0293,6.573739,6.661004,1007.684
27.825955391,-88.61769,-6.451884,-23.62848,-1.065073,-0.08188021,0.1904612,42.98946,8.766304,7.061736,1007.682
27.858731747,28.60421,-21.93417,-22.77324,-0.8203743,-0.1166386,-0.0594122,42.57275,11.69456,7.886589,1007.682
27.891507626,-16.12275,-21.34324,-29.6763,-1.041019,0.02393191,0.2494521,42.57275,11.69456,7.886589,1007.682
27.924283504,52.08587,-26.07065,-23.20086,-0.8122591,0.3807932,0.09433595,42.20795,11.68949,7.451947,1007.682
27.959581375,-28.79538,-25.65701,-18.86354,-0.9625723,0.1080956,0.211593,42.54956,12.7641,6.128952,1007.681
27.992356777,41.58746,-26.77977,-14.0986,-1.198963,-0.1441479,0.1518823,42.88524,14.20993,5.297498,1007.681
28.025132656,-1.959209,-23.64785,-6.767915,-1.637142,-0.03622263,0.3000556,42.88524,14.20993,5.297498,1007.682
28.057909012,4.998318,-16.67492,26.95322,-1.170908,0.3443404,0.3262952,42.88306,14.1921,3.992163,1007.681
28.090684891,-40.84681,-8.697406,32.51232,-1.098669,0.1260169,0.0106796,43.23289,14.91416,3.545121,1007.681
28.125981808,-3.325866,-22.70237,25.426,-1.029342,0.4188651,0.2271679,43.23289,14.91416,3.545121,1007.682
28.158758163,-56.31489,-11.12021,17.66769,-0.8049723,-0.2782478,-0.1352603,43.26608,13.08688,3.200819,1007.682
28.191534042,-11.46369,-24.41606,30.06876,-1.010523,0.2636274,0.223025,44.01389,11.98673,2.844116,1007.682
28.224309921,-18.29697,-28.49345,22.86026,-1.082646,0.1347347,0.05443237,44.01389,11.98673,2.844116,1007.682
28.257086277,-17.30304,-31.80264,18.82838,-0.7367997,0.1471042,0.3669599,45.11215,11.61373,2.413324,1007.682
28.292383194,-32.58475,-25.47973,14.00235,-1.122846,0.3122627,0.1380171,44.04551,10.14671,1.567431,1007.684
28.325159073,-27.49085,-35.58458,1.540191,-1.026215,0.1029924,0.1145166,44.04551,10.14671,1.567431,1007.682
28.357935429,-30.53477,-33.10268,4.350286,-1.011252,-0.02353102,0.3221387,44.41428,9.76442,0.3295145,1007.682
28.390711308,-62.65121,-28.31618,-0.1092125,-1.282119,0.1355737,0.2748865,44.42707,9.029602,-0.09413695,1007.682
28.426008225,-135.8916,-1.842654,-8.722764,-0.9241282,-0.1286732,0.2258182,44.42707,9.029602,-0.09413695,1007.682
28.458784580,-129.6174,2.825667,-11.2885,-0.7845905,-0.1024586,0.7462811,44.78969,9.01684,-0.9648302,1007.687
28.491560459,-60.8497,-8.579221,-27.17165,-0.8550704,0.0983557,0.5728554,44.40752,10.12886,0.3237846,1007.688
28.524336338,-46.49981,-15.49306,-8.844942,-0.8922241,0.8229831,0.604584,44.40752,10.12886,0.3237846,1007.688
28.559634209,-75.19961,-25.83428,5.32771,-0.8461029,0.6202002,0.5941902,44.76483,10.49242,0.3175848,1007.688
28.592409611,-24.9439,-25.24336,-5.973758,-0.9467936,-0.1829921,0.2861241,44.75131,11.22129,0.3061247,1007.688
28.625185490,-26.49692,-10.05654,4.411375,-1.343582,-0.3279434,0.4398753,44.75131,11.22129,0.3061247,1007.688
28.657961845,5.433164,0.6392381,1.784547,-1.314953,-0.7730142,0.2074991,44.38047,11.58661,0.3008647,1007.688
28.690737724,12.20433,21.08531,20.29452,-1.492756,-0.1550811,0.05343508,44.02316,11.22304,0.3070645,1007.688
28.726034641,75.38116,46.90881,25.05946,-1.527668,-0.1742965,0.06365544,44.02316,11.22304,0.3070645,1007.687
28.758811474,144.2731,59.90919,40.75934,-1.256989,0.1657238,0.1679192,44.02451,11.23408,1.115129,1007.687
28.791586876,91.96741,76.8688,51.20556,-1.312301,0.4149555,0.4954821,44.39752,10.8866,2.425724,1007.685
28.824362755,46.24651,108.1879,51.81645,-1.243272,0.1652201,0.4292668,44.39752,10.8866,2.425724,1007.685
28.857139111,9.595255,117.5246,57.74209,-1.420034,0.363519,0.3721052,44.05788,9.828127,4.929737,1007.685
28.892436028,-27.18024,119.0019,51.32774,-1.280906,0.2363267,0.2641419,43.36383,8.429865,9.180395,1007.685
28.925211906,-41.28166,117.17,40.20954,-1.133064,0.3568087,0.3228171,43.36383,8.429865,9.180395,1007.683
28.957988262,-3.698591,114.5699,29.2746,-0.9928492,0.1551628,0.08258894,42.30654,7.039268,13.92879,1007.683
28.990764141,21.3982,95.483,14.24671,-0.9539166,0.3381779,0.15972,40.89723,4.908782,17.8189,1007.68
29.026061058,9.719497,84.84631,6.610579,-0.7997126,0.191779,0.003132338,37.98959,4.956522,20.80628,1007.676
29.058837891,46.8056,56.54091,-0.7201027,-0.7963653,0.2410107,0.1450519,37.98959,4.956522,20.80628,1007.676
29.091613293,38.60566,32.84475,0.01296555,-0.65516,0.2740421,0.1027887,36.53681,4.988883,22.92156,1007.674
29.124389172,64.63426,17.30338,-2.12515,-0.6862543,0.2628924,0.00756967,34.6572,5.005278,23.79421,1007.673
29.157165527,40.96625,-5.447309,2.334348,-0.7034295,0.3604523,0.120102,34.6572,5.005278,23.79421,1007.673
29.192462921,14.00583,-12.47934,8.870872,-0.7085277,0.2394392,0.02354278,34.62267,6.82152,23.33045,1007.669
29.225238323,23.51031,-27.84343,6.54949,-0.7526426,0.2119076,0.03957385,33.8863,7.175814,22.45544,1007.669
29.258014679,6.302855,-30.20714,3.800485,-0.7395602,0.2292604,0.067917,33.8863,7.175814,22.45544,1007.667
29.290790558,23.94516,-31.92083,2.517615,-0.7997578,0.2112768,0.005509867,34.24216,7.52749,21.57901,1007.664
29.326087475,19.47246,-37.88919,-0.2924795,-0.7435917,0.2804711,0.01297415,34.60416,7.509635,20.33537,1007.662
29.358864307,8.849806,-27.78434,-8.600586,-0.8527108,0.1977958,-0.1185355,34.60416,7.509635,20.33537,1007.657
29.391639710,35.49962,-38.12556,-9.394743,-0.8201383,0.1820154,-0.1157009,35.76093,7.11866,18.59916,1007.657
29.424415588,35.4375,-35.17093,-10.7387,-0.7819138,0.2403285,-0.1105844,35.74533,7.830552,17.34453,1007.655
29.457191944,35.81022,-35.99823,-14.77058,-0.9760703,0.1852553,-0.2327882,35.74533,7.830552,17.34453,1007.654
29.492489338,50.22224,-52.3669,-17.21414,-0.9039189,0.274692,-0.2051751,36.80833,9.267849,16.01486,1007.652
29.525265694,22.95122,-49.05771,-19.84096,-0.9101822,0.2536871,-0.2065727,37.52692,9.607615,14.3299,1007.648
29.558041096,24.13152,-43.26662,-20.81839,-0.8958567,0.1565968,-0.17806,37.52692,9.607615,14.3299,1007.645
29.590816975,19.96943,-39.13014,-20.87948,-0.9935575,0.2021806,-0.1591238,37.15318,9.94915,12.5842,1007.645
29.626114368,22.76486,-37.8301,-25.33898,-0.9792802,0.1129211,-0.1951253,38.20953,11.75173,11.31096,1007.641
29.658890724,20.28003,-35.05274,-36.94589,-0.9663208,0.1975558,-0.08649585,38.20953,11.75173,11.31096,1007.638
29.691666126,7.980115,-27.3116,-49.28587,-0.9782754,0.1144691,-0.1137799,37.47774,11.72376,9.136343,1007.636
29.724442959,12.45281,-23.88422,-59.06011,-0.9703972,0.07785141,-0.06608857,37.80593,13.52809,7.864048,1007.633
29.757218361,18.04368,-19.74774,-65.29119,-1.005216,0.01563369,-0.07650217,37.80593,13.52809,7.864048,1007.633
29.792515755,28.10725,-14.31121,-70.8503,-0.9081234,0.03328744,-0.03584332,36.67844,15.341,6.966584,1007.631
29.825292110,2.76197,0.46196,-76.89811,-0.9527911,0.05067044,0.06628511,35.54171,17.56806,5.25437,1007.629
29.858067989,3.755903,0.9347016,-73.90475,-1.023886,-0.07430436,0.03968585,35.54171,17.56806,5.25437,1007.627
29.890843391,6.79982,6.016672,-69.38416,-0.9147246,-0.0359219,0.03503682,33.98343,19.75237,4.786837,1007.624
29.926141262,-19.2909,16.65335,-57.96051,-0.9514633,-0.1048805,0.03811607,32.8499,21.93567,4.318754,1007.624
29.958917141,-15.12881,17.83521,-47.51429,-0.9229203,-0.2744856,-0.01272035,31.36728,23.40285,4.732825,1007.622
29.991692543,-4.009195,26.52183,-42.62717,-0.8743281,-0.3073708,-0.1076143,31.36728,23.40285,4.732825,1007.62
30.024469376,23.69667,32.96293,-47.20884,-0.910211,-0.3402429,-0.169094,29.5213,24.87685,5.582479,1007.62
30.057244778,38.4193,34.14479,-49.95785,-0.9191242,-0.285441,-0.2620582,28.40806,25.96684,5.131586,1007.619
30.092542171,22.33002,56.83638,-54.47844,-0.9610152,-0.2373446,-0.2990962,28.40806,25.96684,5.131586,1007.617
30.125318527,45.25258,61.97744,-43.05479,-1.076801,-0.1397185,-0.2686429,26.93895,26.70514,5.557117,1007.617
30.158094406,54.44646,65.75938,-41.95519,-0.8190914,-0.2910818,-0.2829855,25.10432,27.43244,5.112895,1007.617
30.190869808,81.22051,79.82344,-32.91401,-1.027399,-0.1296672,-0.4935712,25.10432,27.43244,5.112895,1007.615
30.226167679,31.52389,78.99614,-16.23671,-0.747242,-0.07099476,-0.2372769,23.99067,28.5891,5.09616,1007.615
30.258943558,49.60104,86.67819,-14.95384,-0.8322298,-0.3017353,-0.3984652,22.82351,29.3148,4.651076,1007.613
30.291719437,134.8307,72.90959,7.282558,-0.9230258,-0.1109854,-0.4538939,22.82351,29.3148,4.651076,1007.613
30.324495792,105.0128,46.61334,21.69957,-0.8415106,-0.04254238,-0.2346894,22.46474,28.93935,3.787053,1007.613
30.357271195,189.1243,37.04033,47.54022,-0.8913337,-0.165259,-0.4524432,22.79762,30.36226,1.27731,1007.612
30.392568588,183.2228,20.78984,73.2587,-0.8519981,0.3064041,-0.1196637,22.79762,30.36226,1.27731,1007.61
30.425344944,148.8079,1.289258,83.09402,-0.7449864,-0.1559818,0.005452121,24.31421,29.93559,-3.007876,1007.614
30.458120823,230.0619,-29.61621,96.35034,-0.7251916,0.3207372,0.1081794,27.22581,29.50049,-7.667816,1007.614
30.490896225,159.679,-43.38481,104.0476,-0.7294614,0.3015629,0.2275962,27.22581,29.50049,-7.667816,1007.614
30.526194096,161.7912,-71.45383,124.268,-0.9636059,0.7652476,0.3020637,29.83457,25.71965,-12.70987,1007.614
30.558969974,60.65854,-101.2956,82.29987,-1.446516,0.09258544,1.575018,32.09021,21.25965,-18.61118,1007.614
30.591745853,321.8143,-111.3414,85.65977,-2.939868,-0.8291554,0.6013407,32.09021,21.25965,-18.61118,1007.614
30.624522209,339.8293,-157.3746,144.9161,-1.676666,1.628235,0.03144768,32.53897,16.07514,-24.49867,1007.614
30.657297611,-34.32413,-52.66236,139.5403,-0.4307164,1.145923,0.6145552,31.20156,9.00613,-30.78933,1007.614
30.692595005,0.7119844,-48.64406,81.81116,-0.4481001,-0.2427495,-0.01196893,31.20156,9.00613,-30.78933,1007.614
30.725371361,81.28263,-41.49385,55.90942,-1.035551,0.3527372,0.1103114,29.18373,-0.189168,-32.7557,1007.616
30.758147240,9.346772,-49.53045,52.54952,-1.073156,0.48644,0.3321068,28.1096,-1.297693,-34.04243,1007.616
30.790922642,36.30719,-46.87128,45.82973,-0.7988118,0.2962675,0.3899876,28.1096,-1.297693,-34.04243,1007.618
30.826220512,5.060439,-39.54379,39.96518,-0.8834193,0.364426,0.4878019,26.72486,-5.325935,-35.65582,1007.618
30.858996391,24.56636,-38.95286,36.11657,-0.7203665,0.3682906,0.2871629,24.57202,-7.160717,-36.92968,1007.618
30.891772270,12.57705,-48.17132,17.6066,-0.7665538,0.6180308,0.3966465,24.57202,-7.160717,-36.92968,1007.619
30.924548626,-7.922803,-57.38978,31.59599,-1.192759,0.372436,0.4707132,22.70488,-7.951765,-37.34995,1007.621
30.957324505,11.14827,-44.03483,27.38085,-0.9538458,0.3559606,0.4056689,21.26678,-9.058568,-38.57405,1007.623
30.992621422,7.980115,-44.15302,31.41272,-0.7996583,0.4719632,0.5129533,19.81505,-9.437346,-39.87178,1007.623
31.025397778,25.24969,-49.1168,32.6345,-0.803495,0.639353,0.4255837,19.81505,-9.437346,-39.87178,1007.625
31.058173656,-12.45762,-53.07601,33.48975,-0.7210684,0.2876373,0.4562441,18.02036,-10.90177,-40.65458,1007.625
31.090950012,1.084709,-39.83925,28.66372,-0.6051515,0.1420601,0.4638903,16.22701,-12.35515,-40.62931,1007.626
31.123725891,45.68743,-41.49385,50.47249,-0.7736133,0.768961,0.6077536,16.22701,-12.35515,-40.62931,1007.625
31.159022808,41.89806,-42.91207,50.71685,-0.463506,0.4153193,0.5079092,14.03361,-12.00331,-41.93755,1007.625
31.191799164,16.42854,-38.00738,47.6624,-0.5006177,0.5122712,0.55695,11.46423,-14.18963,-42.33492,1007.625
31.224575043,39.91019,-40.48927,54.3211,-0.5906258,0.6021874,0.6383781,11.46423,-14.18963,-42.33492,1007.625
31.257350922,21.3982,-38.18465,55.90942,-0.5103761,0.520041,0.4953471,10.4058,-16.00919,-42.30486,1007.625
31.292647839,30.59208,-27.96162,51.32774,-0.6081782,0.6261719,0.6066137,7.520228,-17.45996,-42.27818,1007.625
31.325424194,42.82987,-25.95247,59.08604,-0.4919794,0.767341,0.5964981,7.520228,-17.45996,-42.27818,1007.625
31.358200073,44.25865,-24.94789,55.72615,-0.4700093,0.6900858,0.4564861,5.720125,-18.54891,-42.25864,1007.625
31.390976429,27.11332,-21.6978,51.51101,-0.4996459,0.7057382,0.5017808,3.584116,-21.15547,-42.21476,1007.625
31.423752308,40.03444,-14.25212,49.55616,-0.3073358,0.7097594,0.5687093,3.584116,-21.15547,-42.21476,1007.625
31.459049225,12.88766,-12.47934,59.75802,-0.5116439,0.8482561,0.4895605,1.421389,-22.23166,-41.32452,1007.625
31.491825581,74.38722,-10.88383,46.99042,-0.2011854,0.5495955,0.3814492,-0.7959832,-23.67808,-40.86359,1007.626
31.524601459,40.2208,-7.101903,61.77396,-0.5582309,1.242266,0.4746363,-0.7959832,-23.67808,-40.86359,1007.626
31.557377338,-5.810697,-14.25212,42.95855,-0.1261898,0.23895,0.3037589,-2.230659,-24.75686,-40.03646,1007.628
31.592674732,67.86455,-18.38861,52.61061,-0.3987564,1.369587,0.5222023,-2.945292,-25.48399,-40.02406,1007.63
31.625450611,-56.43913,-22.82056,60.43,-0.2683454,0.6249607,0.4440719,-2.945292,-25.48399,-40.02406,1007.63
31.658226490,70.97058,-25.7161,62.87357,-0.1693455,0.8451322,0.39922,-5.463985,-26.9127,-38.31956,1007.627
31.691002846,-5.313731,-17.14766,73.01434,-0.2782323,1.121173,0.5141076,-7.648449,-26.90747,-38.31674,1007.627
31.723778725,18.35429,-6.333699,62.44594,0.03583509,0.5520631,0.5214409,-7.648449,-26.90747,-38.31674,1007.627
31.759075642,7.110425,-0.2471521,70.26534,-0.1166794,1.167794,0.4404872,-10.52716,-28.72182,-38.22217,1007.633
31.791851997,-18.79394,8.203101,74.66374,-0.03874381,0.8616312,0.443652,-12.06974,-27.24855,-37.37291,1007.629
31.824627876,41.64958,-8.756498,61.04089,0.2402881,0.7173598,0.3729289,-12.06974,-27.24855,-37.37291,1007.629
31.857403755,35.4375,16.94882,75.21355,0.1239997,1.639524,0.4006965,-14.26169,-26.88482,-37.81094,1007.631
31.892701149,-151.6703,26.69911,62.50703,0.1004196,1.157257,0.4852362,-15.72341,-26.50586,-37.00672,1007.631
31.925477028,-167.8838,27.76278,46.44062,-0.09181917,0.7139094,0.4160816,-15.72341,-26.50586,-37.00672,1007.637
31.958252907,-118.6842,27.05367,32.81777,-0.1196743,0.6114058,0.5573411,-16.85153,-24.69803,-38.27714,1007.633
31.991029263,-60.8497,14.40783,23.34897,-0.08535313,0.6623189,0.4835346,-16.23163,-19.21919,-41.78372,1007.634
32.023805141,-42.08923,8.853121,13.39146,-0.05291959,0.6842671,0.3789691,-16.23163,-19.21919,-41.78372,1007.634
32.059102058,-37.74078,-8.224665,5.144443,0.03775249,0.7830262,0.6043639,-15.60093,-14.14174,-43.54316,1007.634
32.091878414,-59.66941,-9.701982,0.01296555,0.1287633,0.7299886,0.7823318,-15.2639,-12.68487,-43.56656,1007.634
32.157430172,-18.48334,-4.738196,-10.49435,-0.01460043,0.5420303,0.6101462,-15.66324,-10.8737,-44.46496,1007.634
32.192727566,-7.6122,-3.969991,-18.92463,0.02401638,0.6549598,0.6946041,-15.6828,-9.774443,-44.04704,1007.633
32.225503445,1.705917,-3.674528,-30.95917,0.05225894,0.6180502,0.6758196,-16.06788,-8.686203,-44.49887,1007.633
32.258279324,25.37393,-10.05654,-33.15837,0.1681105,0.7103636,0.714396,-16.06788,-8.686203,-44.49887,1007.634
32.291055679,0.4013805,-10.88383,-26.13313,0.07267042,0.8281112,0.7423639,-15.33224,-9.046441,-44.05897,1007.636
32.323831558,-12.83035,-10.94293,-17.76394,0.09240908,0.6998624,0.7660971,-16.0476,-9.779514,-44.48168,1007.638
32.359128475,1.14683,-20.92959,-10.00563,-0.04833113,0.6498423,0.6760103,-16.0476,-9.779514,-44.48168,1007.638
32.391904831,18.78913,-28.02071,1.723458,0.1050524,0.6896497,0.7530857,-16.40346,-10.13119,-43.60526,1007.638
32.424680710,-4.941006,-5.388216,8.748694,0.1060763,0.8910065,0.8519404,-17.49569,-10.12857,-43.60384,1007.638
32.457456589,-37.61654,-23.76604,12.84166,0.09547213,0.6729347,0.9524174,-17.49569,-10.12857,-43.60384,1007.638
32.492753983,13.13614,-31.03444,22.49372,0.08113325,0.7329353,0.7030156,-17.48227,-10.8583,-43.65454,1007.64
32.525529861,-53.76794,-24.77061,21.5163,0.02565379,0.7931594,0.7454163,-18.22926,-9.751352,-42.80057,1007.644
32.558305740,-78.05716,-29.85258,29.09134,0.2227011,0.6377819,0.7870616,-18.22926,-9.751352,-42.80057,1007.644
32.591082096,-62.65121,-18.74316,14.00235,0.1182975,0.6186212,0.6785504,-19.7072,-8.665589,-43.62395,1007.644
32.623857975,-48.92252,-10.29291,7.526915,0.2080605,0.6597455,0.7413338,-20.47705,-6.416482,-43.65834,1007.644
32.659154892,-50.9725,-8.165572,10.9479,0.1061111,0.6642572,0.812329,-20.47705,-6.416482,-43.65834,1007.644
32.691931248,-36.49836,7.375803,0.9293008,0.1014344,0.3508165,0.6385596,-21.25795,-3.488203,-42.89518,1007.644
32.724707127,-16.37123,1.466536,-3.285841,0.09553067,0.6364695,0.8913393,-20.93516,-1.308397,-43.36514,1007.638
32.757483005,-30.3484,-7.279181,-5.607224,0.1321976,0.5406603,0.9371262,-20.93516,-1.308397,-43.36514,1007.638
32.792780876,-9.537944,-33.10268,-34.62451,-0.02373792,-0.02892015,1.02163,-21.3059,-0.9422379,-43.30824,1007.638
32.825556278,211.8605,-65.07182,-56.31111,0.2585301,0.08087613,0.8527998,-20.96897,0.5137873,-43.39379,1007.638
32.858332157,245.2194,-78.0722,-68.77327,0.1462434,0.4967707,0.6319756,-20.96897,0.5137873,-43.39379,1007.638
32.891108513,295.5372,-95.68182,-66.08535,0.03704809,0.6179658,0.3316822,-22.38857,-1.281131,-41.62281,1007.636
32.959181309,200.6166,-73.46298,-63.27525,0.1055074,1.131598,-0.1992336,-24.81236,-10.74135,-36.37249,1007.636
32.991957664,54.5707,-22.28872,-45.25399,0.1941916,1.395793,-0.2744532,-26.81451,-19.80843,-28.95289,1007.636
33.024733543,-58.11639,32.90384,-26.19422,0.2217457,1.283492,-0.06784509,-28.13457,-26.66556,-24.18023,1007.636
33.057509899,-116.2614,57.72277,-8.35623,0.2272585,1.254404,0.1550562,-28.13457,-26.66556,-24.18023,1007.636
33.092807293,-217.0835,81.41894,0.01296555,0.2303652,1.024105,0.4418061,-27.35306,-29.58874,-24.57044,1007.636
33.125582695,-215.7789,71.43227,5.877511,-0.007714293,0.717722,0.6531877,-26.31063,-27.48031,-30.13836,1007.636
33.158358574,-173.3504,35.79938,6.977113,-0.09763958,0.2033353,0.9612851,-23.85246,-23.18875,-35.74254,1007.636
33.191134930,1.208951,3.53478,11.68097,-0.0338147,0.3234025,0.9912785,-23.85246,-23.18875,-35.74254,1007.638
33.223910809,54.75706,-9.701982,13.39146,0.01262729,0.7610235,0.7623433,-22.09921,-16.61341,-38.83269,1007.638
33.259207726,-3.387987,-2.079025,6.427312,0.05103739,0.9161749,0.615203,-22.11804,-15.50821,-37.97965,1007.638
33.291984081,-18.85606,-6.451884,-2.674951,-0.02571584,0.6952907,0.4607195,-22.11804,-15.50821,-37.97965,1007.638
33.324759960,74.26299,-14.54758,1.540191,0.1281322,0.9125592,0.3526835,-22.81842,-16.95827,-37.52068,1007.642
33.357536316,23.69667,-11.82932,3.800485,0.1473492,1.230247,0.4893472,-22.8306,-16.21836,-36.72408,1007.642
33.392833710,-66.06785,3.121131,11.07008,0.2011312,0.8778486,0.5263342,-22.8306,-16.21836,-36.72408,1007.64
33.425609112,-70.1057,8.853121,12.65839,0.08945902,0.6932002,0.6520314,-23.57959,-18.40903,-37.12379,1007.638
33.458385944,-35.69079,4.893911,10.15374,0.05672069,0.5902241,0.7312076,-22.82664,-16.60572,-38.39663,1007.638
33.491161347,11.14827,-2.906323,3.739396,0.05139725,0.5768189,0.7009147,-22.82664,-16.60572,-38.39663,1007.638
33.523937225,34.56781,-8.165572,-1.453171,0.1054807,0.6917858,0.6394802,-23.2852,-14.78252,-38.42474,1007.638
33.559234142,24.25576,-5.742772,-4.6298,0.1639445,0.8029095,0.5804479,-23.298,-14.0477,-38.00108,1007.636
33.592010498,11.64524,-2.729045,-2.919307,0.1298129,0.8625369,0.5814016,-23.298,-14.0477,-38.00108,1007.636
33.624786377,-0.03346492,-0.4244302,1.60128,0.1103907,0.8654141,0.598291,-23.6343,-15.49863,-37.54259,1007.636
33.657562733,-12.3955,1.34835,4.961176,0.09647499,0.797677,0.6094975,-23.62827,-15.86901,-37.97197,1007.636
33.692860126,-11.27733,0.7574235,4.350286,0.07864205,0.7450554,0.6279109,-23.62827,-15.86901,-37.97197,1007.638
33.725635529,-1.21376,-1.429006,0.7460337,0.08063901,0.721681,0.6260159,-23.62754,-15.86307,-37.53686,1007.636
33.758412361,7.54527,-2.433581,-1.269904,0.1184428,0.750191,0.6181814,-24.00587,-15.13927,-37.98296,1007.636
33.791187763,4.37711,-0.9562643,-2.73604,0.1149709,0.7783197,0.6051505,-24.00587,-15.13927,-37.98296,1007.636
33.823963642,2.637728,-0.1289668,-2.491684,0.1256441,0.7812942,0.5998258,-23.64117,-15.13504,-37.61047,1007.636
33.859261513,4.811956,-0.8971716,-0.1092125,0.1217132,0.8037722,0.6152048,-24.00514,-15.13332,-37.54785,1007.636
33.892037392,3.321057,-1.31082,1.173657,0.1134444,0.8095443,0.6147344,-24.00514,-15.13332,-37.54785,1007.634
33.924812794,-3.263745,-0.5426155,1.662369,0.1188125,0.7973797,0.6099263,-23.62754,-15.86307,-37.53686,1007.639
33.957589149,-3.947074,-0.5426155,1.356924,0.1135603,0.7623596,0.6229883,-23.99838,-15.49776,-37.54211,1007.637
33.992886543,0.4013805,-0.7198936,0.9293008,0.1048188,0.7622666,0.620121,-23.28312,-14.76554,-37.18156,1007.637
34.025661945,3.072574,-0.6017082,0.1351436,0.1023764,0.7670698,0.6133806,-23.28312,-14.76554,-37.18156,1007.637
34.058438778,2.140762,0.04831128,-0.4146576,0.1129933,0.7929043,0.6036891,-23.99838,-15.49776,-37.54211,1007.635
34.091214180,9.22253,-5.683679,1.234746,0.1102599,0.7376084,0.7096786,-23.62692,-15.85797,-37.1639,1007.635
34.123990059,70.22514,-28.07981,2.82306,0.07989229,0.6453755,0.7199982,-23.62692,-15.85797,-37.1639,1007.635
34.159287930,181.7941,-64.00815,44.05815,0.110477,1.089518,0.8877329,-24.71842,-15.84941,-36.72738,1007.633
34.192063808,254.6617,-97.21824,119.6863,0.2565198,1.500612,0.6465673,-25.04299,-17.62402,-33.27953,1007.633
34.224839211,285.4736,-99.34557,193.543,0.2945907,1.995948,0.462813,-25.04299,-17.62402,-33.27953,1007.633
34.257615566,151.914,-88.59071,266.0557,0.3578299,1.883102,0.1278054,-28.21924,-22.32119,-26.36238,1007.635
34.290391445,137.5641,-72.04475,318.0424,0.2795596,1.272846,-0.05737621,-34.76718,-25.12233,-19.09759,1007.635
34.325688839,73.08269,-57.68524,344.3718,0.305351,1.015833,-0.2077163,-34.76718,-25.12233,-19.09759,1007.632
34.358465195,-14.50761,-44.74394,336.98,0.4078059,0.5964509,-0.2665347,-40.34401,-18.43005,-14.90568,1007.632
34.391240597,-33.20596,-40.84383,319.0809,0.3740773,0.2810269,-0.2703115,-45.60732,-9.283978,-13.36406,1007.63
34.424016476,-45.50587,-38.00738,294.9508,0.3887318,0.04815334,-0.2276355,-45.60732,-9.283978,-13.36406,1007.63
34.459314346,-29.91356,-26.60249,267.0331,0.4217207,-0.1904479,-0.4704418,-47.28289,2.847431,-10.5686,1007.628
34.492090225,-8.668253,-5.801865,233.4341,0.5135178,-0.4115378,-0.5069098,-46.02837,13.85562,-9.438001,1007.626
34.524865627,34.75417,25.81272,199.1021,0.557112,-0.5901321,-0.6078299,-46.02837,13.85562,-9.438001,1007.626
34.557642460,38.85414,71.60956,154.3849,0.6506072,-0.7094541,-0.6497504,-42.56306,23.39488,-8.722411,1007.625
34.590417862,77.92811,144.6481,108.6903,0.5461863,-0.925364,-0.7560396,-38.67999,29.59475,-12.24468,1007.623
34.625715256,126.0096,230.3916,52.18299,0.530989,-0.8348054,-0.6021043,-38.67999,29.59475,-12.24468,1007.621
34.658491611,148.5594,312.1758,-1.575349,0.3887275,-0.8161346,-0.4776036,-34.334,33.51737,-17.84556,1007.619
34.691267013,121.0399,383.5007,-57.16636,0.1351993,-0.8959675,0.04347005,-29.23303,32.27768,-27.65604,1007.619
34.724042892,416.9833,46.67244,90.42471,-3.18582,0.8676451,4.602852,-29.23303,32.27768,-27.65604,1007.62
34.759340763,-227.3955,-146.5606,48.39547,2.937305,0.2258454,0.1992775,-21.48155,28.85106,-37.00039,1007.62
34.792116642,-184.967,190.0313,7.649093,0.2998929,-1.56351,-0.05700044,-16.95733,20.38676,-37.68135,1007.62
34.824892044,70.28725,9.148584,-2.491684,0.7510934,-0.8160444,0.8510578,-16.95733,20.38676,-37.68135,1007.62
34.857668877,49.04195,-6.865533,-24.667,0.6315508,-0.3972532,0.705339,-18.2087,29.23142,-35.26991,1007.62
34.890444279,-0.9031558,-2.197211,-32.66966,0.8043491,-0.1705279,0.6737803,-17.11044,28.85842,-35.7007,1007.62
34.925741672,-44.82254,-9.820167,-28.82105,0.616443,-0.3770275,0.6904221,-17.11044,28.85842,-35.7007,1007.622
34.958518028,-56.99821,-16.37945,-31.38679,0.5714454,-0.4597604,0.6136357,-17.80584,26.95941,-36.97549,1007.624
34.991293907,-95.69946,-2.788137,-53.50101,0.6109571,-0.5530871,0.5227053,-18.53785,27.34937,-35.23983,1007.624
35.059367180,-121.9144,-2.84723,-132.4891,0.2753832,-0.7621893,0.4126218,-19.65472,28.89934,-33.1489,1007.624
35.092143059,-40.41197,21.1444,-179.6498,0.5185984,-0.7519187,0.3364556,-21.85917,30.42007,-28.9422,1007.624
35.124919415,70.28725,21.61714,-211.9659,0.388426,-0.5248243,0.3720428,-25.95706,32.26388,-28.09538,1007.625
35.157695293,80.16446,23.44901,-245.8703,0.5360955,-0.3565336,0.3021229,-25.95706,32.26388,-28.09538,1007.625
35.190470696,96.1295,36.21303,-271.711,0.4805291,-0.05926418,0.3239493,-28.77669,27.08508,-29.68873,1007.625
35.225768089,60.96914,43.83599,-287.5941,0.4839623,0.320114,0.2458701,-33.00654,19.4186,-31.30322,1007.624
35.258544445,45.3147,57.19093,-289.7933,0.4791231,0.7638083,0.4618256,-33.00654,19.4186,-31.30322,1007.624
35.291320324,6.302855,59.55464,-266.1519,0.3814472,0.7744197,0.3542163,-34.65957,10.22837,-32.83495,1007.622
35.324096680,17.23611,61.44561,-232.2475,0.2953251,0.8456988,0.3422791,-34.50512,1.767749,-34.00753,1007.624
35.359393597,68.9206,40.76317,-188.9965,0.1410896,0.9875619,0.4069335,-34.50512,1.767749,-34.00753,1007.625
35.392169476,22.08153,34.73571,-153.8092,0.3608656,1.298136,0.5402441,-32.19427,-5.178772,-35.14466,1007.625
35.424945831,-16.86819,41.88593,-136.7043,0.4957252,0.9846171,0.7478637,-29.5514,-10.35962,-35.937,1007.625
35.457721710,49.10407,25.93091,-136.2766,0.2954861,1.088656,0.8916277,-29.5514,-10.35962,-35.937,1007.625
35.490497112,16.49066,4.775725,-126.258,0.08774107,1.217941,0.6825331,-27.3196,-12.91592,-35.8997,1007.627
35.525794983,-62.83757,9.266769,-89.97115,0.0441787,1.12781,0.5205534,-26.16652,-16.19847,-35.84954,1007.629
35.558570862,-83.83439,15.17604,-69.07871,0.002952437,0.9125269,0.5686305,-26.16652,-16.19847,-35.84954,1007.629
35.591346741,46.86772,11.80775,-18.06938,-0.002152493,1.678364,0.8149083,-25.40528,-18.02835,-36.25695,1007.629
35.659420013,-79.23746,8.61675,-6.890093,0.003745131,0.3551551,0.4693454,-23.24183,-16.94621,-36.71207,1007.632
35.692195892,-18.85606,10.15316,-7.500983,0.00893891,0.6776828,0.7586268,-23.61475,-16.59789,-37.9605,1007.632
35.724972248,-48.23919,13.75781,-3.774554,0.02381001,0.7770079,0.8763754,-22.51738,-13.69704,-38.87806,1007.634
35.757748127,-20.09847,3.948428,5.144443,0.008802892,0.5300929,0.7564427,-22.51738,-13.69704,-38.87806,1007.634
35.790523529,34.94053,-3.910898,0.3794996,0.005700038,0.5963057,0.6865528,-21.81023,-12.61142,-39.3313,1007.636
35.825821400,17.29823,3.948428,0.2573216,0.0506821,0.8767904,0.6951692,-21.46103,-11.89446,-40.15129,1007.636
35.858597279,-18.17273,1.821092,3.678307,0.030646,0.7357308,0.745491,-21.46103,-11.89446,-40.15129,1007.637
35.891373157,9.346772,-0.8971716,0.9293008,0.0516879,0.6591405,0.702234,-22.17358,-12.6046,-38.89572,1007.637
35.924149513,-3.512228,3.298409,1.723458,0.03032124,0.6599463,0.7037275,-22.18035,-12.24017,-38.90145,1007.639
35.959446430,13.57098,0.7574235,2.517615,0.02924755,0.7103631,0.7412003,-22.18035,-12.24017,-38.90145,1007.639
35.992222309,16.6149,0.8756089,4.655731,0.05645804,0.6911808,0.6814758,-22.55191,-11.8808,-39.34182,1007.639
36.024998665,12.82554,1.643814,0.3184106,0.03163214,0.714251,0.6670591,-21.8042,-12.9818,-39.76068,1007.641
36.057774544,12.88766,4.243891,6.427312,0.04356969,0.8031317,0.687114,-21.8042,-12.9818,-39.76068,1007.641
36.090550423,-0.1577065,2.943853,0.4405887,0.06727766,0.631789,0.6723938,-21.43794,-12.96484,-38.45581,1007.643
36.125847816,26.98907,1.289258,5.32771,0.01933366,0.7838916,0.6809428,-22.16079,-13.33942,-39.31937,1007.643
36.158623695,-1.462243,3.002945,5.510977,0.0554662,0.6969099,0.6660659,-22.1533,-13.69791,-38.87852,1007.643
36.191399574,25.49817,1.939277,0.6238557,0.04132109,0.7271152,0.6843457,-22.1533,-13.69791,-38.87852,1007.643
36.224175930,20.777,3.416594,12.41404,0.02501452,0.8437876,0.6726559,-22.50386,-14.42592,-38.8666,1007.645
36.259472847,11.08615,5.898487,8.198894,0.05365666,0.6333023,0.6262131,-21.76821,-14.78615,-38.42669,1007.645
36.292248726,20.777,4.65754,2.884149,-0.002076671,0.7991676,0.6621974,-21.76821,-14.78615,-38.42669,1007.645
36.325025082,8.477081,-0.2471521,14.24671,0.03058354,0.7488954,0.6775993,-22.13229,-14.78528,-38.42622,1007.645
36.357800961,43.14048,3.121131,16.20156,0.07338231,0.7068856,0.608245,-21.3981,-15.15741,-38.85654,1007.646
36.390576840,33.636,3.002945,16.56809,0.02676028,0.9195288,0.6364354,-21.3981,-15.15741,-38.85654,1007.646
36.425874233,12.76341,1.584721,17.6066,0.06445826,0.7822315,0.598044,-22.48222,-15.50819,-38.04134,1007.645
36.458650112,16.49066,2.88476,11.13117,0.03573522,0.8111336,0.5865159,-22.10379,-16.23114,-37.53308,1007.646
36.491425991,5.371043,5.484838,6.121867,0.06216097,0.7236374,0.5793647,-22.10379,-16.23114,-37.53308,1007.646
36.524202347,18.66489,4.184799,2.700882,0.04882198,0.8245133,0.6037937,-22.81842,-16.95827,-37.52068,1007.645
36.559499264,14.00583,-0.4244302,2.945238,0.07355256,0.8342997,0.5806149,-22.45372,-16.95405,-37.1482,1007.645
36.592275143,12.14221,0.9937943,-0.7811917,0.08620401,0.8181524,0.5546157,-22.45372,-16.95405,-37.1482,1007.645
36.625051498,10.15434,2.057462,-3.163663,0.05651901,0.8517377,0.5873681,-21.71205,-17.68467,-37.13768,1007.645
36.657827377,0.02865586,5.543931,-2.186239,0.07993684,0.8021383,0.5705397,-22.80417,-17.6812,-37.07411,1007.645
36.690603733,22.5785,7.73036,-12.26593,0.07092158,0.7078643,0.5418215,-22.80417,-17.6812,-37.07411,1007.645
36.725900650,38.60566,9.325862,-19.96314,0.05790626,0.8764242,0.5637409,-22.06936,-18.04823,-37.13148,1007.646
